File: films/spectrometro uv1000/20230310_Sample-07.txt
"File_221110_221826 - RawData"
"Wavelength nm.","Abs."
300.00,-0.42789
301.00,-0.33293
302.00,-0.24399
303.00,-0.17418
304.00,-0.13071
305.00,-0.09488
306.00,-0.11026
307.00,-0.08508
308.00,-0.06238
309.00,-0.05016
310.00,-0.03690
311.00,-0.02885
312.00,-0.02426
313.00,-0.02203
314.00,-0.01938
315.00,-0.01750
316.00,-0.01567
317.00,-0.01448
318.00,-0.01379
319.00,-0.01222
320.00,-0.01337
321.00,-0.01457
322.00,-0.01489
323.00,-0.01601
324.00,-0.01587
325.00,-0.01604
326.00,-0.01581
327.00,-0.01645
328.00,-0.01660
329.00,-0.01773
330.00,-0.01830
331.00,-0.01912
332.00,-0.01894
333.00,-0.01929
334.00,-0.01935
335.00,-0.01994
336.00,-0.01965
337.00,-0.02019
338.00,-0.02060
339.00,-0.02118
340.00,-0.02264
341.00,-0.02168
342.00,-0.02151
343.00,-0.02153
344.00,-0.02170
345.00,-0.02185
346.00,-0.02200
347.00,-0.02194
348.00,-0.02203
349.00,-0.02229
350.00,-0.02226
351.00,-0.02248
352.00,-0.02296
353.00,-0.02248
354.00,-0.02245
355.00,-0.02249
356.00,-0.02267
357.00,-0.02258
358.00,-0.02274
359.00,-0.02232
360.00,-0.02249
361.00,-0.02280
362.00,-0.02240
363.00,-0.02258
364.00,-0.02267
365.00,-0.02277
366.00,-0.02251
367.00,-0.02228
368.00,-0.02249
369.00,-0.02232
370.00,-0.02220
371.00,-0.02254
372.00,-0.02222
373.00,-0.02211
374.00,-0.02234
375.00,-0.02197
376.00,-0.02213
377.00,-0.02213
378.00,-0.02187
379.00,-0.02190
380.00,-0.02197
381.00,-0.02185
382.00,-0.02173
383.00,-0.02168
384.00,-0.02197
385.00,-0.02185
386.00,-0.02211
387.00,-0.02203
388.00,-0.02188
389.00,-0.02193
390.00,-0.02179
391.00,-0.02173
392.00,-0.02184
393.00,-0.02164
394.00,-0.02147
395.00,-0.02165
396.00,-0.02171
397.00,-0.02161
398.00,-0.02171
399.00,-0.02162
400.00,-0.02158
401.00,-0.02167
402.00,-0.02151
403.00,-0.02150
404.00,-0.02155
405.00,-0.02145
406.00,-0.02133
407.00,-0.02147
408.00,-0.02132
409.00,-0.02116
410.00,-0.02132
411.00,-0.02121
412.00,-0.02110
413.00,-0.02118
414.00,-0.02115
415.00,-0.02087
416.00,-0.02109
417.00,-0.02107
418.00,-0.02094
419.00,-0.02098
420.00,-0.02087
421.00,-0.02081
422.00,-0.02095
423.00,-0.02098
424.00,-0.02087
425.00,-0.02078
426.00,-0.02084
427.00,-0.02086
428.00,-0.02069
429.00,-0.02077
430.00,-0.02087
431.00,-0.02054
432.00,-0.02032
433.00,-0.02061
434.00,-0.02054
435.00,-0.02032
436.00,-0.02042
437.00,-0.02051
438.00,-0.02034
439.00,-0.02023
440.00,-0.02036
441.00,-0.02032
442.00,-0.02017
443.00,-0.02022
444.00,-0.02034
445.00,-0.02039
446.00,-0.02010
447.00,-0.01997
448.00,-0.02007
449.00,-0.02007
450.00,-0.02023
451.00,-0.02028
452.00,-0.02014
453.00,-0.01991
454.00,-0.01991
455.00,-0.01994
456.00,-0.01987
457.00,-0.01978
458.00,-0.01973
459.00,-0.01999
460.00,-0.01987
461.00,-0.01971
462.00,-0.01971
463.00,-0.01976
464.00,-0.01965
465.00,-0.01955
466.00,-0.01953
467.00,-0.01971
468.00,-0.01970
469.00,-0.01949
470.00,-0.01952
471.00,-0.01959
472.00,-0.01953
473.00,-0.01938
474.00,-0.01930
475.00,-0.01944
476.00,-0.01944
477.00,-0.01944
478.00,-0.01929
479.00,-0.01935
480.00,-0.01939
481.00,-0.01927
482.00,-0.01918
483.00,-0.01910
484.00,-0.01924
485.00,-0.01910
486.00,-0.01910
487.00,-0.01901
488.00,-0.01909
489.00,-0.01915
490.00,-0.01912
491.00,-0.01895
492.00,-0.01894
493.00,-0.01910
494.00,-0.01912
495.00,-0.01883
496.00,-0.01883
497.00,-0.01884
498.00,-0.01886
499.00,-0.01875
500.00,-0.01875
501.00,-0.01875
502.00,-0.01881
503.00,-0.01889
504.00,-0.01875
505.00,-0.01878
506.00,-0.01880
507.00,-0.01878
508.00,-0.01866
509.00,-0.01848
510.00,-0.01845
511.00,-0.01848
512.00,-0.01857
513.00,-0.01857
514.00,-0.01849
515.00,-0.01846
516.00,-0.01830
517.00,-0.01843
518.00,-0.01842
519.00,-0.01837
520.00,-0.01830
521.00,-0.01820
522.00,-0.01846
523.00,-0.01822
524.00,-0.01830
525.00,-0.01826
526.00,-0.01814
527.00,-0.01825
528.00,-0.01826
529.00,-0.01822
530.00,-0.01816
531.00,-0.01802
532.00,-0.01825
533.00,-0.01813
534.00,-0.01801
535.00,-0.01790
536.00,-0.01802
537.00,-0.01801
538.00,-0.01785
539.00,-0.01794
540.00,-0.01785
541.00,-0.01782
542.00,-0.01781
543.00,-0.01791
544.00,-0.01797
545.00,-0.01779
546.00,-0.01756
547.00,-0.01767
548.00,-0.01768
549.00,-0.01762
550.00,-0.01759
551.00,-0.01752
552.00,-0.01755
553.00,-0.01747
554.00,-0.01759
555.00,-0.01753
556.00,-0.01758
557.00,-0.01752
558.00,-0.01733
559.00,-0.01749
560.00,-0.01724
561.00,-0.01750
562.00,-0.01712
563.00,-0.01729
564.00,-0.01720
565.00,-0.01730
566.00,-0.01726
567.00,-0.01730
568.00,-0.01741
569.00,-0.01718
570.00,-0.01721
571.00,-0.01717
572.00,-0.01717
573.00,-0.01723
574.00,-0.01717
575.00,-0.01704
576.00,-0.01703
577.00,-0.01703
578.00,-0.01723
579.00,-0.01724
580.00,-0.01714
581.00,-0.01701
582.00,-0.01694
583.00,-0.01703
584.00,-0.01692
585.00,-0.01689
586.00,-0.01677
587.00,-0.01688
588.00,-0.01686
589.00,-0.01680
590.00,-0.01675
591.00,-0.01680
592.00,-0.01689
593.00,-0.01666
594.00,-0.01660
595.00,-0.01662
596.00,-0.01665
597.00,-0.01674
598.00,-0.01662
599.00,-0.01663
600.00,-0.01662
601.00,-0.01646
602.00,-0.01642
603.00,-0.01649
604.00,-0.01654
605.00,-0.01657
606.00,-0.01656
607.00,-0.01649
608.00,-0.01648
609.00,-0.01636
610.00,-0.01630
611.00,-0.01633
612.00,-0.01636
613.00,-0.01636
614.00,-0.01642
615.00,-0.01613
616.00,-0.01617
617.00,-0.01611
618.00,-0.01611
619.00,-0.01624
620.00,-0.01620
621.00,-0.01631
622.00,-0.01604
623.00,-0.01590
624.00,-0.01607
625.00,-0.01601
626.00,-0.01611
627.00,-0.01622
628.00,-0.01604
629.00,-0.01598
630.00,-0.01587
631.00,-0.01564
632.00,-0.01588
633.00,-0.01591
634.00,-0.01588
635.00,-0.01582
636.00,-0.01585
637.00,-0.01578
638.00,-0.01572
639.00,-0.01573
640.00,-0.01575
641.00,-0.01596
642.00,-0.01596
643.00,-0.01601
644.00,-0.01581
645.00,-0.01566
646.00,-0.01553
647.00,-0.01550
648.00,-0.01552
649.00,-0.01569
650.00,-0.01570
651.00,-0.01555
652.00,-0.01567
653.00,-0.01553
654.00,-0.01544
655.00,-0.01553
656.00,-0.01552
657.00,-0.01544
658.00,-0.01546
659.00,-0.01559
660.00,-0.01544
661.00,-0.01549
662.00,-0.01530
663.00,-0.01529
664.00,-0.01527
665.00,-0.01537
666.00,-0.01540
667.00,-0.01532
668.00,-0.01537
669.00,-0.01534
670.00,-0.01524
671.00,-0.01523
672.00,-0.01514
673.00,-0.01524
674.00,-0.01543
675.00,-0.01541
676.00,-0.01520
677.00,-0.01518
678.00,-0.01506
679.00,-0.01503
680.00,-0.01491
681.00,-0.01501
682.00,-0.01506
683.00,-0.01506
684.00,-0.01517
685.00,-0.01509
686.00,-0.01506
687.00,-0.01508
688.00,-0.01498
689.00,-0.01500
690.00,-0.01485
691.00,-0.01476
692.00,-0.01491
693.00,-0.01491
694.00,-0.01491
695.00,-0.01486
696.00,-0.01476
697.00,-0.01472
698.00,-0.01462
699.00,-0.01468
700.00,-0.01457
701.00,-0.01468
702.00,-0.01474
703.00,-0.01479
704.00,-0.01471
705.00,-0.01476
706.00,-0.01463
707.00,-0.01443
708.00,-0.01433
709.00,-0.01451
710.00,-0.01465
711.00,-0.01466
712.00,-0.01471
713.00,-0.01468
714.00,-0.01456
715.00,-0.01457
716.00,-0.01445
717.00,-0.01437
718.00,-0.01442
719.00,-0.01440
720.00,-0.01437
721.00,-0.01428
722.00,-0.01430
723.00,-0.01431
724.00,-0.01433
725.00,-0.01425
726.00,-0.01422
727.00,-0.01421
728.00,-0.01416
729.00,-0.01422
730.00,-0.01422
731.00,-0.01428
732.00,-0.01427
733.00,-0.01428
734.00,-0.01421
735.00,-0.01421
736.00,-0.01404
737.00,-0.01390
738.00,-0.01396
739.00,-0.01402
740.00,-0.01405
741.00,-0.01418
742.00,-0.01411
743.00,-0.01416
744.00,-0.01407
745.00,-0.01402
746.00,-0.01404
747.00,-0.01384
748.00,-0.01389
749.00,-0.01381
750.00,-0.01385
751.00,-0.01404
752.00,-0.01404
753.00,-0.01408
754.00,-0.01398
755.00,-0.01378
756.00,-0.01385
757.00,-0.01392
758.00,-0.01358
759.00,-0.01361
760.00,-0.01373
761.00,-0.01372
762.00,-0.01381
763.00,-0.01387
764.00,-0.01395
765.00,-0.01395
766.00,-0.01385
767.00,-0.01375
768.00,-0.01353
769.00,-0.01370
770.00,-0.01352
771.00,-0.01363
772.00,-0.01363
773.00,-0.01363
774.00,-0.01367
775.00,-0.01378
776.00,-0.01363
777.00,-0.01358
778.00,-0.01360
779.00,-0.01344
780.00,-0.01340
781.00,-0.01340
782.00,-0.01347
783.00,-0.01344
784.00,-0.01347
785.00,-0.01358
786.00,-0.01358
787.00,-0.01357
788.00,-0.01353
789.00,-0.01344
790.00,-0.01341
791.00,-0.01329
792.00,-0.01332
793.00,-0.01315
794.00,-0.01317
795.00,-0.01328
796.00,-0.01321
797.00,-0.01324
798.00,-0.01341
799.00,-0.01340
800.00,-0.01321
801.00,-0.01346
802.00,-0.01343
803.00,-0.01309
804.00,-0.01315
805.00,-0.01311
806.00,-0.01305
807.00,-0.01294
808.00,-0.01305
809.00,-0.01303
810.00,-0.01305
811.00,-0.01317
812.00,-0.01311
813.00,-0.01315
814.00,-0.01315
815.00,-0.01315
816.00,-0.01306
817.00,-0.01289
818.00,-0.01291
819.00,-0.01282
820.00,-0.01286
821.00,-0.01280
822.00,-0.01291
823.00,-0.01286
824.00,-0.01299
825.00,-0.01291
826.00,-0.01295
827.00,-0.01300
828.00,-0.01309
829.00,-0.01309
830.00,-0.01274
831.00,-0.01282
832.00,-0.01265
833.00,-0.01260
834.00,-0.01265
835.00,-0.01265
836.00,-0.01283
837.00,-0.01285
838.00,-0.01289
839.00,-0.01288
840.00,-0.01283
841.00,-0.01280
842.00,-0.01273
843.00,-0.01262
844.00,-0.01247
845.00,-0.01256
846.00,-0.01260
847.00,-0.01247
848.00,-0.01259
849.00,-0.01262
850.00,-0.01279
851.00,-0.01276
852.00,-0.01265
853.00,-0.01271
854.00,-0.01247
855.00,-0.01248
856.00,-0.01265
857.00,-0.01253
858.00,-0.01242
859.00,-0.01236
860.00,-0.01222
861.00,-0.01239
862.00,-0.01241
863.00,-0.01251
864.00,-0.01244
865.00,-0.01250
866.00,-0.01262
867.00,-0.01263
868.00,-0.01251
869.00,-0.01244
870.00,-0.01239
871.00,-0.01222
872.00,-0.01216
873.00,-0.01219
874.00,-0.01215
875.00,-0.01221
876.00,-0.01224
877.00,-0.01224
878.00,-0.01234
879.00,-0.01239
880.00,-0.01239
881.00,-0.01231
882.00,-0.01230
883.00,-0.01244
884.00,-0.01230
885.00,-0.01225
886.00,-0.01205
887.00,-0.01199
888.00,-0.01201
889.00,-0.01207
890.00,-0.01216
891.00,-0.01204
892.00,-0.01201
893.00,-0.01204
894.00,-0.01213
895.00,-0.01234
896.00,-0.01227
897.00,-0.01204
898.00,-0.01201
899.00,-0.01215
900.00,-0.01213
901.00,-0.01183
902.00,-0.01198
903.00,-0.01196
904.00,-0.01169
905.00,-0.01166
906.00,-0.01176
907.00,-0.01173
908.00,-0.01180
909.00,-0.01170
910.00,-0.01204
911.00,-0.01192
912.00,-0.01227
913.00,-0.01212
914.00,-0.01202
915.00,-0.01225
916.00,-0.01183
917.00,-0.01187
918.00,-0.01183
919.00,-0.01144
920.00,-0.01167
921.00,-0.01161
922.00,-0.01176
923.00,-0.01164
924.00,-0.01172
925.00,-0.01170
926.00,-0.01196
927.00,-0.01175
928.00,-0.01212
929.00,-0.01195
930.00,-0.01218
931.00,-0.01180
932.00,-0.01205
933.00,-0.01164
934.00,-0.01151
935.00,-0.01170
936.00,-0.01137
937.00,-0.01155
938.00,-0.01138
939.00,-0.01151
940.00,-0.01138
941.00,-0.01176
942.00,-0.01170
943.00,-0.01164
944.00,-0.01192
945.00,-0.01190
946.00,-0.01181
947.00,-0.01190
948.00,-0.01172
949.00,-0.01173
950.00,-0.01169
951.00,-0.01164
952.00,-0.01146
953.00,-0.01134
954.00,-0.01141
955.00,-0.01149
956.00,-0.01143
957.00,-0.01141
958.00,-0.01147
959.00,-0.01158
960.00,-0.01155
961.00,-0.01166
962.00,-0.01164
963.00,-0.01172
964.00,-0.01172
965.00,-0.01164
966.00,-0.01164
967.00,-0.01143
968.00,-0.01143
969.00,-0.01131
970.00,-0.01122
971.00,-0.01108
972.00,-0.01109
973.00,-0.01123
974.00,-0.01134
975.00,-0.01138
976.00,-0.01138
977.00,-0.01126
978.00,-0.01140
979.00,-0.01144
980.00,-0.01167
981.00,-0.01161
982.00,-0.01141
983.00,-0.01137
984.00,-0.01131
985.00,-0.01122
986.00,-0.01109
987.00,-0.01108
988.00,-0.01118
989.00,-0.01112
990.00,-0.01097
991.00,-0.01096
992.00,-0.01100
993.00,-0.01108
994.00,-0.01111
995.00,-0.01120
996.00,-0.01123
997.00,-0.01125
998.00,-0.01131
999.00,-0.01143
1000.00,-0.01138
1001.00,-0.01132
1002.00,-0.01138
1003.00,-0.01140
1004.00,-0.01128
1005.00,-0.01117
1006.00,-0.01106
1007.00,-0.01111
1008.00,-0.01096
1009.00,-0.01091
1010.00,-0.01076
1011.00,-0.01088
1012.00,-0.01082
1013.00,-0.01077
1014.00,-0.01080
1015.00,-0.01088
1016.00,-0.01100
1017.00,-0.01097
1018.00,-0.01091
1019.00,-0.01089
1020.00,-0.01099
1021.00,-0.01099
1022.00,-0.01102
1023.00,-0.01100
1024.00,-0.01093
1025.00,-0.01096
1026.00,-0.01086
1027.00,-0.01076
1028.00,-0.01083
1029.00,-0.01071
1030.00,-0.01065
1031.00,-0.01054
1032.00,-0.01054
1033.00,-0.01068
1034.00,-0.01064
1035.00,-0.01057
1036.00,-0.01067
1037.00,-0.01085
1038.00,-0.01096
1039.00,-0.01082
1040.00,-0.01077
1041.00,-0.01088
1042.00,-0.01109
1043.00,-0.01100
1044.00,-0.01086
1045.00,-0.01077
1046.00,-0.01074
1047.00,-0.01073
1048.00,-0.01050
1049.00,-0.01054
1050.00,-0.01060
1051.00,-0.01050
1052.00,-0.01018
1053.00,-0.01031
1054.00,-0.01050
1055.00,-0.01012
1056.00,-0.01042
1057.00,-0.01060
1058.00,-0.01038
1059.00,-0.01045
1060.00,-0.01073
1061.00,-0.01065
1062.00,-0.01048
1063.00,-0.01073
1064.00,-0.01080
1065.00,-0.01056
1066.00,-0.01067
1067.00,-0.01048
1068.00,-0.01035
1069.00,-0.01042
1070.00,-0.01019
1071.00,-0.01022
1072.00,-0.01021
1073.00,-0.01013
1074.00,-0.01015
1075.00,-0.00992
1076.00,-0.01025
1077.00,-0.00984
1078.00,-0.01021
1079.00,-0.01025
1080.00,-0.01030
1081.00,-0.01064
1082.00,-0.01016
1083.00,-0.01038
1084.00,-0.01051
1085.00,-0.01027
1086.00,-0.01053
1087.00,-0.01036
1088.00,-0.01031
1089.00,-0.01039
1090.00,-0.01025
1091.00,-0.01010
1092.00,-0.01013
1093.00,-0.00996
1094.00,-0.00993
1095.00,-0.00975
1096.00,-0.00964
1097.00,-0.00996
1098.00,-0.00970
1099.00,-0.00986
1100.00,-0.00993