File: films/spectrometro uv1000/20230310_Sample-02.txt
"File_221110_215921 - RawData"
"Wavelength nm.","Abs."
300.00,0.19911
301.00,0.14882
302.00,0.14539
303.00,0.15887
304.00,0.12236
305.00,0.11424
306.00,0.10924
307.00,0.10191
308.00,0.09253
309.00,0.08351
310.00,0.07425
311.00,0.06744
312.00,0.05763
313.00,0.05240
314.00,0.04773
315.00,0.04005
316.00,0.03612
317.00,0.03127
318.00,0.02611
319.00,0.02386
320.00,0.01889
321.00,0.01479
322.00,0.01190
323.00,0.00719
324.00,0.00624
325.00,0.00269
326.00,-0.00009
327.00,-0.00101
328.00,-0.00417
329.00,-0.00519
330.00,-0.00674
331.00,-0.00952
332.00,-0.00975
333.00,-0.01108
334.00,-0.01361
335.00,-0.01355
336.00,-0.01474
337.00,-0.01581
338.00,-0.01561
339.00,-0.01750
340.00,-0.02000
341.00,-0.01791
342.00,-0.01926
343.00,-0.02002
344.00,-0.01929
345.00,-0.02036
346.00,-0.02121
347.00,-0.02032
348.00,-0.02112
349.00,-0.02214
350.00,-0.02116
351.00,-0.02220
352.00,-0.02330
353.00,-0.02199
354.00,-0.02216
355.00,-0.02333
356.00,-0.02258
357.00,-0.02237
358.00,-0.02365
359.00,-0.02327
360.00,-0.02240
361.00,-0.02332
362.00,-0.02386
363.00,-0.02293
364.00,-0.02342
365.00,-0.02431
366.00,-0.02327
367.00,-0.02293
368.00,-0.02385
369.00,-0.02362
370.00,-0.02274
371.00,-0.02304
372.00,-0.02380
373.00,-0.02299
374.00,-0.02232
375.00,-0.02330
376.00,-0.02327
377.00,-0.02217
378.00,-0.02206
379.00,-0.02313
380.00,-0.02264
381.00,-0.02176
382.00,-0.02252
383.00,-0.02312
384.00,-0.02261
385.00,-0.02190
386.00,-0.02304
387.00,-0.02354
388.00,-0.02254
389.00,-0.02188
390.00,-0.02290
391.00,-0.02370
392.00,-0.02275
393.00,-0.02203
394.00,-0.02301
395.00,-0.02361
396.00,-0.02258
397.00,-0.02187
398.00,-0.02287
399.00,-0.02354
400.00,-0.02264
401.00,-0.02168
402.00,-0.02269
403.00,-0.02365
404.00,-0.02260
405.00,-0.02159
406.00,-0.02216
407.00,-0.02338
408.00,-0.02319
409.00,-0.02168
410.00,-0.02142
411.00,-0.02278
412.00,-0.02307
413.00,-0.02200
414.00,-0.02109
415.00,-0.02173
416.00,-0.02306
417.00,-0.02275
418.00,-0.02136
419.00,-0.02107
420.00,-0.02228
421.00,-0.02309
422.00,-0.02199
423.00,-0.02071
424.00,-0.02122
425.00,-0.02254
426.00,-0.02264
427.00,-0.02141
428.00,-0.02072
429.00,-0.02170
430.00,-0.02275
431.00,-0.02249
432.00,-0.02090
433.00,-0.02032
434.00,-0.02126
435.00,-0.02248
436.00,-0.02222
437.00,-0.02072
438.00,-0.02017
439.00,-0.02095
440.00,-0.02231
441.00,-0.02228
442.00,-0.02097
443.00,-0.02010
444.00,-0.02063
445.00,-0.02194
446.00,-0.02229
447.00,-0.02106
448.00,-0.02002
449.00,-0.02016
450.00,-0.02153
451.00,-0.02231
452.00,-0.02141
453.00,-0.02011
454.00,-0.01981
455.00,-0.02094
456.00,-0.02184
457.00,-0.02187
458.00,-0.02078
459.00,-0.01976
460.00,-0.02011
461.00,-0.02130
462.00,-0.02208
463.00,-0.02138
464.00,-0.02022
465.00,-0.01967
466.00,-0.02017
467.00,-0.02139
468.00,-0.02193
469.00,-0.02116
470.00,-0.01997
471.00,-0.01945
472.00,-0.02017
473.00,-0.02122
474.00,-0.02138
475.00,-0.02057
476.00,-0.01955
477.00,-0.01932
478.00,-0.02017
479.00,-0.02109
480.00,-0.02138
481.00,-0.02060
482.00,-0.01953
483.00,-0.01918
484.00,-0.01984
485.00,-0.02089
486.00,-0.02122
487.00,-0.02063
488.00,-0.01956
489.00,-0.01898
490.00,-0.01933
491.00,-0.02023
492.00,-0.02098
493.00,-0.02100
494.00,-0.02011
495.00,-0.01900
496.00,-0.01898
497.00,-0.01962
498.00,-0.02040
499.00,-0.02078
500.00,-0.02037
501.00,-0.01938
502.00,-0.01875
503.00,-0.01907
504.00,-0.02003
505.00,-0.02078
506.00,-0.02081
507.00,-0.01999
508.00,-0.01901
509.00,-0.01854
510.00,-0.01898
511.00,-0.01981
512.00,-0.02054
513.00,-0.02048
514.00,-0.01974
515.00,-0.01880
516.00,-0.01833
517.00,-0.01871
518.00,-0.01965
519.00,-0.02032
520.00,-0.02042
521.00,-0.01961
522.00,-0.01881
523.00,-0.01811
524.00,-0.01846
525.00,-0.01921
526.00,-0.02010
527.00,-0.02039
528.00,-0.01978
529.00,-0.01865
530.00,-0.01810
531.00,-0.01814
532.00,-0.01883
533.00,-0.01964
534.00,-0.02014
535.00,-0.01984
536.00,-0.01924
537.00,-0.01822
538.00,-0.01758
539.00,-0.01805
540.00,-0.01863
541.00,-0.01945
542.00,-0.01993
543.00,-0.01961
544.00,-0.01888
545.00,-0.01772
546.00,-0.01729
547.00,-0.01784
548.00,-0.01859
549.00,-0.01936
550.00,-0.01978
551.00,-0.01930
552.00,-0.01860
553.00,-0.01756
554.00,-0.01726
555.00,-0.01740
556.00,-0.01825
557.00,-0.01912
558.00,-0.01962
559.00,-0.01945
560.00,-0.01840
561.00,-0.01770
562.00,-0.01733
563.00,-0.01706
564.00,-0.01753
565.00,-0.01842
566.00,-0.01913
567.00,-0.01942
568.00,-0.01907
569.00,-0.01811
570.00,-0.01723
571.00,-0.01682
572.00,-0.01689
573.00,-0.01753
574.00,-0.01859
575.00,-0.01918
576.00,-0.01932
577.00,-0.01857
578.00,-0.01767
579.00,-0.01680
580.00,-0.01639
581.00,-0.01671
582.00,-0.01747
583.00,-0.01836
584.00,-0.01904
585.00,-0.01910
586.00,-0.01859
587.00,-0.01779
588.00,-0.01682
589.00,-0.01622
590.00,-0.01627
591.00,-0.01678
592.00,-0.01778
593.00,-0.01848
594.00,-0.01866
595.00,-0.01855
596.00,-0.01801
597.00,-0.01700
598.00,-0.01617
599.00,-0.01581
600.00,-0.01614
601.00,-0.01706
602.00,-0.01804
603.00,-0.01877
604.00,-0.01875
605.00,-0.01843
606.00,-0.01746
607.00,-0.01645
608.00,-0.01584
609.00,-0.01569
610.00,-0.01590
611.00,-0.01682
612.00,-0.01770
613.00,-0.01828
614.00,-0.01863
615.00,-0.01813
616.00,-0.01726
617.00,-0.01637
618.00,-0.01555
619.00,-0.01530
620.00,-0.01558
621.00,-0.01643
622.00,-0.01718
623.00,-0.01801
624.00,-0.01843
625.00,-0.01820
626.00,-0.01756
627.00,-0.01666
628.00,-0.01556
629.00,-0.01512
630.00,-0.01500
631.00,-0.01544
632.00,-0.01645
633.00,-0.01729
634.00,-0.01785
635.00,-0.01808
636.00,-0.01787
637.00,-0.01720
638.00,-0.01617
639.00,-0.01534
640.00,-0.01468
641.00,-0.01469
642.00,-0.01527
643.00,-0.01613
644.00,-0.01683
645.00,-0.01752
646.00,-0.01785
647.00,-0.01744
648.00,-0.01678
649.00,-0.01595
650.00,-0.01518
651.00,-0.01443
652.00,-0.01450
653.00,-0.01460
654.00,-0.01526
655.00,-0.01628
656.00,-0.01692
657.00,-0.01753
658.00,-0.01756
659.00,-0.01720
660.00,-0.01653
661.00,-0.01563
662.00,-0.01480
663.00,-0.01418
664.00,-0.01413
665.00,-0.01448
666.00,-0.01521
667.00,-0.01588
668.00,-0.01668
669.00,-0.01735
670.00,-0.01732
671.00,-0.01688
672.00,-0.01608
673.00,-0.01532
674.00,-0.01465
675.00,-0.01418
676.00,-0.01376
677.00,-0.01395
678.00,-0.01462
679.00,-0.01538
680.00,-0.01624
681.00,-0.01675
682.00,-0.01729
683.00,-0.01691
684.00,-0.01639
685.00,-0.01573
686.00,-0.01480
687.00,-0.01414
688.00,-0.01381
689.00,-0.01376
690.00,-0.01389
691.00,-0.01447
692.00,-0.01523
693.00,-0.01598
694.00,-0.01643
695.00,-0.01671
696.00,-0.01651
697.00,-0.01604
698.00,-0.01527
699.00,-0.01445
700.00,-0.01378
701.00,-0.01331
702.00,-0.01314
703.00,-0.01347
704.00,-0.01402
705.00,-0.01489
706.00,-0.01556
707.00,-0.01595
708.00,-0.01628
709.00,-0.01646
710.00,-0.01607
711.00,-0.01538
712.00,-0.01468
713.00,-0.01390
714.00,-0.01335
715.00,-0.01311
716.00,-0.01311
717.00,-0.01335
718.00,-0.01405
719.00,-0.01468
720.00,-0.01520
721.00,-0.01579
722.00,-0.01598
723.00,-0.01599
724.00,-0.01567
725.00,-0.01503
726.00,-0.01422
727.00,-0.01364
728.00,-0.01311
729.00,-0.01271
730.00,-0.01270
731.00,-0.01292
732.00,-0.01337
733.00,-0.01404
734.00,-0.01465
735.00,-0.01523
736.00,-0.01558
737.00,-0.01563
738.00,-0.01543
739.00,-0.01494
740.00,-0.01428
741.00,-0.01372
742.00,-0.01302
743.00,-0.01257
744.00,-0.01239
745.00,-0.01248
746.00,-0.01279
747.00,-0.01312
748.00,-0.01382
749.00,-0.01436
750.00,-0.01489
751.00,-0.01532
752.00,-0.01540
753.00,-0.01527
754.00,-0.01477
755.00,-0.01414
756.00,-0.01346
757.00,-0.01297
758.00,-0.01231
759.00,-0.01205
760.00,-0.01210
761.00,-0.01221
762.00,-0.01268
763.00,-0.01318
764.00,-0.01369
765.00,-0.01437
766.00,-0.01463
767.00,-0.01482
768.00,-0.01463
769.00,-0.01465
770.00,-0.01419
771.00,-0.01384
772.00,-0.01318
773.00,-0.01257
774.00,-0.01207
775.00,-0.01173
776.00,-0.01160
777.00,-0.01170
778.00,-0.01198
779.00,-0.01244
780.00,-0.01309
781.00,-0.01361
782.00,-0.01414
783.00,-0.01457
784.00,-0.01466
785.00,-0.01460
786.00,-0.01431
787.00,-0.01373
788.00,-0.01292
789.00,-0.01242
790.00,-0.01201
791.00,-0.01157
792.00,-0.01143
793.00,-0.01131
794.00,-0.01154
795.00,-0.01193
796.00,-0.01218
797.00,-0.01274
798.00,-0.01335
799.00,-0.01382
800.00,-0.01396
801.00,-0.01428
802.00,-0.01431
803.00,-0.01372
804.00,-0.01349
805.00,-0.01297
806.00,-0.01241
807.00,-0.01180
808.00,-0.01144
809.00,-0.01108
810.00,-0.01088
811.00,-0.01108
812.00,-0.01132
813.00,-0.01167
814.00,-0.01215
815.00,-0.01279
816.00,-0.01321
817.00,-0.01361
818.00,-0.01370
819.00,-0.01367
820.00,-0.01367
821.00,-0.01341
822.00,-0.01299
823.00,-0.01231
824.00,-0.01202
825.00,-0.01152
826.00,-0.01102
827.00,-0.01079
828.00,-0.01071
829.00,-0.01070
830.00,-0.01082
831.00,-0.01123
832.00,-0.01163
833.00,-0.01205
834.00,-0.01257
835.00,-0.01292
836.00,-0.01329
837.00,-0.01343
838.00,-0.01349
839.00,-0.01331
840.00,-0.01303
841.00,-0.01257
842.00,-0.01221
843.00,-0.01158
844.00,-0.01105
845.00,-0.01074
846.00,-0.01048
847.00,-0.01022
848.00,-0.01042
849.00,-0.01054
850.00,-0.01091
851.00,-0.01123
852.00,-0.01164
853.00,-0.01208
854.00,-0.01266
855.00,-0.01282
856.00,-0.01312
857.00,-0.01328
858.00,-0.01305
859.00,-0.01282
860.00,-0.01256
861.00,-0.01204
862.00,-0.01154
863.00,-0.01125
864.00,-0.01065
865.00,-0.01031
866.00,-0.01010
867.00,-0.00989
868.00,-0.00984
869.00,-0.01015
870.00,-0.01030
871.00,-0.01068
872.00,-0.01118
873.00,-0.01158
874.00,-0.01208
875.00,-0.01248
876.00,-0.01268
877.00,-0.01283
878.00,-0.01289
879.00,-0.01273
880.00,-0.01242
881.00,-0.01201
882.00,-0.01155
883.00,-0.01117
884.00,-0.01057
885.00,-0.01022
886.00,-0.00967
887.00,-0.00948
888.00,-0.00937
889.00,-0.00957
890.00,-0.00989
891.00,-0.00998
892.00,-0.01025
893.00,-0.01065
894.00,-0.01123
895.00,-0.01181
896.00,-0.01205
897.00,-0.01218
898.00,-0.01239
899.00,-0.01259
900.00,-0.01248
901.00,-0.01205
902.00,-0.01195
903.00,-0.01169
904.00,-0.01109
905.00,-0.01054
906.00,-0.01019
907.00,-0.00960
908.00,-0.00946
909.00,-0.00902
910.00,-0.00912
911.00,-0.00893
912.00,-0.00940
913.00,-0.00952
914.00,-0.00975
915.00,-0.01048
916.00,-0.01062
917.00,-0.01118
918.00,-0.01175
919.00,-0.01175
920.00,-0.01219
921.00,-0.01234
922.00,-0.01247
923.00,-0.01212
924.00,-0.01195
925.00,-0.01151
926.00,-0.01132
927.00,-0.01060
928.00,-0.01035
929.00,-0.00978
930.00,-0.00961
931.00,-0.00909
932.00,-0.00906
933.00,-0.00873
934.00,-0.00867
935.00,-0.00911
936.00,-0.00908
937.00,-0.00952
938.00,-0.00974
939.00,-0.01035
940.00,-0.01059
941.00,-0.01111
942.00,-0.01146
943.00,-0.01167
944.00,-0.01215
945.00,-0.01216
946.00,-0.01205
947.00,-0.01204
948.00,-0.01161
949.00,-0.01144
950.00,-0.01105
951.00,-0.01064
952.00,-0.00984
953.00,-0.00938
954.00,-0.00916
955.00,-0.00894
956.00,-0.00859
957.00,-0.00844
958.00,-0.00838
959.00,-0.00851
960.00,-0.00861
961.00,-0.00899
962.00,-0.00928
963.00,-0.00978
964.00,-0.01027
965.00,-0.01065
966.00,-0.01109
967.00,-0.01125
968.00,-0.01161
969.00,-0.01183
970.00,-0.01189
971.00,-0.01173
972.00,-0.01160
973.00,-0.01144
974.00,-0.01126
975.00,-0.01079
976.00,-0.01048
977.00,-0.00987
978.00,-0.00948
979.00,-0.00911
980.00,-0.00890
981.00,-0.00856
982.00,-0.00816
983.00,-0.00801
984.00,-0.00806
985.00,-0.00801
986.00,-0.00824
987.00,-0.00853
988.00,-0.00897
989.00,-0.00937
990.00,-0.00974
991.00,-0.01018
992.00,-0.01051
993.00,-0.01100
994.00,-0.01131
995.00,-0.01161
996.00,-0.01175
997.00,-0.01172
998.00,-0.01180
999.00,-0.01172
1000.00,-0.01134
1001.00,-0.01099
1002.00,-0.01064
1003.00,-0.01016
1004.00,-0.00952
1005.00,-0.00906
1006.00,-0.00876
1007.00,-0.00841
1008.00,-0.00806
1009.00,-0.00780
1010.00,-0.00764
1011.00,-0.00774
1012.00,-0.00772
1013.00,-0.00780
1014.00,-0.00807
1015.00,-0.00838
1016.00,-0.00880
1017.00,-0.00909
1018.00,-0.00946
1019.00,-0.00980
1020.00,-0.01033
1021.00,-0.01073
1022.00,-0.01102
1023.00,-0.01132
1024.00,-0.01134
1025.00,-0.01134
1026.00,-0.01129
1027.00,-0.01106
1028.00,-0.01099
1029.00,-0.01067
1030.00,-0.01033
1031.00,-0.00986
1032.00,-0.00943
1033.00,-0.00926
1034.00,-0.00867
1035.00,-0.00830
1036.00,-0.00809
1037.00,-0.00768
1038.00,-0.00749
1039.00,-0.00723
1040.00,-0.00702
1041.00,-0.00717
1042.00,-0.00745
1043.00,-0.00772
1044.00,-0.00792
1045.00,-0.00826
1046.00,-0.00870
1047.00,-0.00923
1048.00,-0.00951
1049.00,-0.00989
1050.00,-0.01054
1051.00,-0.01077
1052.00,-0.01079
1053.00,-0.01112
1054.00,-0.01141
1055.00,-0.01096
1056.00,-0.01106
1057.00,-0.01103
1058.00,-0.01041
1059.00,-0.01009
1060.00,-0.00998
1061.00,-0.00948
1062.00,-0.00876
1063.00,-0.00871
1064.00,-0.00818
1065.00,-0.00769
1066.00,-0.00743
1067.00,-0.00716
1068.00,-0.00699
1069.00,-0.00700
1070.00,-0.00671
1071.00,-0.00690
1072.00,-0.00711
1073.00,-0.00716
1074.00,-0.00739
1075.00,-0.00749
1076.00,-0.00806
1077.00,-0.00815
1078.00,-0.00874
1079.00,-0.00920
1080.00,-0.00946
1081.00,-0.01007
1082.00,-0.00998
1083.00,-0.01038
1084.00,-0.01065
1085.00,-0.01057
1086.00,-0.01088
1087.00,-0.01074
1088.00,-0.01068
1089.00,-0.01062
1090.00,-0.01033
1091.00,-0.00989
1092.00,-0.00964
1093.00,-0.00919
1094.00,-0.00887
1095.00,-0.00827
1096.00,-0.00775
1097.00,-0.00761
1098.00,-0.00710
1099.00,-0.00676
1100.00,-0.00653