File: films/spectrometro uv1000/20230310_Sample-01.txt
"File_221110_214932 - RawData"
"Wavelength nm.","Abs."
300.00,0.04910
301.00,0.01138
302.00,0.00739
303.00,0.00740
304.00,0.00441
305.00,0.00494
306.00,-0.00214
307.00,-0.00429
308.00,-0.00027
309.00,-0.00377
310.00,-0.00473
311.00,-0.00584
312.00,-0.00946
313.00,-0.01057
314.00,-0.01221
315.00,-0.01384
316.00,-0.01418
317.00,-0.01439
318.00,-0.01462
319.00,-0.01627
320.00,-0.01775
321.00,-0.01950
322.00,-0.02019
323.00,-0.02089
324.00,-0.02107
325.00,-0.02136
326.00,-0.02119
327.00,-0.02176
328.00,-0.02293
329.00,-0.02287
330.00,-0.02361
331.00,-0.02399
332.00,-0.02448
333.00,-0.02434
334.00,-0.02449
335.00,-0.02501
336.00,-0.02446
337.00,-0.02480
338.00,-0.02544
339.00,-0.02553
340.00,-0.02672
341.00,-0.02565
342.00,-0.02547
343.00,-0.02554
344.00,-0.02559
345.00,-0.02585
346.00,-0.02557
347.00,-0.02580
348.00,-0.02538
349.00,-0.02591
350.00,-0.02565
351.00,-0.02612
352.00,-0.02567
353.00,-0.02599
354.00,-0.02542
355.00,-0.02559
356.00,-0.02583
357.00,-0.02544
358.00,-0.02602
359.00,-0.02522
360.00,-0.02574
361.00,-0.02536
362.00,-0.02577
363.00,-0.02560
364.00,-0.02562
365.00,-0.02586
366.00,-0.02528
367.00,-0.02551
368.00,-0.02509
369.00,-0.02533
370.00,-0.02515
371.00,-0.02505
372.00,-0.02518
373.00,-0.02467
374.00,-0.02533
375.00,-0.02457
376.00,-0.02486
377.00,-0.02483
378.00,-0.02428
379.00,-0.02484
380.00,-0.02432
381.00,-0.02487
382.00,-0.02457
383.00,-0.02408
384.00,-0.02501
385.00,-0.02420
386.00,-0.02483
387.00,-0.02469
388.00,-0.02429
389.00,-0.02475
390.00,-0.02411
391.00,-0.02422
392.00,-0.02495
393.00,-0.02399
394.00,-0.02437
395.00,-0.02440
396.00,-0.02400
397.00,-0.02455
398.00,-0.02411
399.00,-0.02396
400.00,-0.02443
401.00,-0.02388
402.00,-0.02415
403.00,-0.02429
404.00,-0.02357
405.00,-0.02419
406.00,-0.02403
407.00,-0.02351
408.00,-0.02414
409.00,-0.02388
410.00,-0.02344
411.00,-0.02403
412.00,-0.02365
413.00,-0.02327
414.00,-0.02390
415.00,-0.02335
416.00,-0.02319
417.00,-0.02399
418.00,-0.02347
419.00,-0.02315
420.00,-0.02368
421.00,-0.02335
422.00,-0.02301
423.00,-0.02370
424.00,-0.02338
425.00,-0.02277
426.00,-0.02348
427.00,-0.02338
428.00,-0.02263
429.00,-0.02342
430.00,-0.02353
431.00,-0.02249
432.00,-0.02277
433.00,-0.02350
434.00,-0.02263
435.00,-0.02251
436.00,-0.02347
437.00,-0.02284
438.00,-0.02209
439.00,-0.02299
440.00,-0.02321
441.00,-0.02216
442.00,-0.02223
443.00,-0.02342
444.00,-0.02257
445.00,-0.02190
446.00,-0.02281
447.00,-0.02293
448.00,-0.02187
449.00,-0.02206
450.00,-0.02339
451.00,-0.02261
452.00,-0.02168
453.00,-0.02267
454.00,-0.02296
455.00,-0.02184
456.00,-0.02165
457.00,-0.02280
458.00,-0.02261
459.00,-0.02139
460.00,-0.02174
461.00,-0.02289
462.00,-0.02219
463.00,-0.02113
464.00,-0.02185
465.00,-0.02278
466.00,-0.02199
467.00,-0.02119
468.00,-0.02200
469.00,-0.02274
470.00,-0.02153
471.00,-0.02095
472.00,-0.02194
473.00,-0.02243
474.00,-0.02141
475.00,-0.02090
476.00,-0.02196
477.00,-0.02243
478.00,-0.02133
479.00,-0.02090
480.00,-0.02188
481.00,-0.02232
482.00,-0.02141
483.00,-0.02060
484.00,-0.02142
485.00,-0.02208
486.00,-0.02135
487.00,-0.02057
488.00,-0.02110
489.00,-0.02187
490.00,-0.02165
491.00,-0.02068
492.00,-0.02061
493.00,-0.02170
494.00,-0.02197
495.00,-0.02078
496.00,-0.02034
497.00,-0.02119
498.00,-0.02179
499.00,-0.02110
500.00,-0.02039
501.00,-0.02087
502.00,-0.02167
503.00,-0.02116
504.00,-0.02042
505.00,-0.02048
506.00,-0.02132
507.00,-0.02155
508.00,-0.02065
509.00,-0.01988
510.00,-0.02055
511.00,-0.02124
512.00,-0.02115
513.00,-0.02022
514.00,-0.02003
515.00,-0.02080
516.00,-0.02136
517.00,-0.02077
518.00,-0.01991
519.00,-0.02002
520.00,-0.02084
521.00,-0.02104
522.00,-0.02045
523.00,-0.01958
524.00,-0.02017
525.00,-0.02100
526.00,-0.02095
527.00,-0.02007
528.00,-0.01953
529.00,-0.02019
530.00,-0.02100
531.00,-0.02106
532.00,-0.02003
533.00,-0.01935
534.00,-0.01999
535.00,-0.02083
536.00,-0.02098
537.00,-0.01994
538.00,-0.01913
539.00,-0.01965
540.00,-0.02055
541.00,-0.02090
542.00,-0.02002
543.00,-0.01900
544.00,-0.01929
545.00,-0.02023
546.00,-0.02077
547.00,-0.02008
548.00,-0.01903
549.00,-0.01880
550.00,-0.01981
551.00,-0.02054
552.00,-0.02034
553.00,-0.01926
554.00,-0.01865
555.00,-0.01906
556.00,-0.02022
557.00,-0.02060
558.00,-0.01984
559.00,-0.01880
560.00,-0.01840
561.00,-0.01949
562.00,-0.02040
563.00,-0.02039
564.00,-0.01924
565.00,-0.01807
566.00,-0.01836
567.00,-0.01953
568.00,-0.02043
569.00,-0.02016
570.00,-0.01901
571.00,-0.01817
572.00,-0.01842
573.00,-0.01964
574.00,-0.02040
575.00,-0.01982
576.00,-0.01859
577.00,-0.01779
578.00,-0.01859
579.00,-0.01974
580.00,-0.02025
581.00,-0.01974
582.00,-0.01837
583.00,-0.01764
584.00,-0.01802
585.00,-0.01923
586.00,-0.02007
587.00,-0.01994
588.00,-0.01869
589.00,-0.01775
590.00,-0.01772
591.00,-0.01874
592.00,-0.01988
593.00,-0.01981
594.00,-0.01875
595.00,-0.01749
596.00,-0.01735
597.00,-0.01820
598.00,-0.01961
599.00,-0.01997
600.00,-0.01918
601.00,-0.01796
602.00,-0.01729
603.00,-0.01779
604.00,-0.01862
605.00,-0.01971
606.00,-0.01964
607.00,-0.01895
608.00,-0.01756
609.00,-0.01720
610.00,-0.01779
611.00,-0.01892
612.00,-0.01970
613.00,-0.01938
614.00,-0.01834
615.00,-0.01718
616.00,-0.01692
617.00,-0.01782
618.00,-0.01901
619.00,-0.01959
620.00,-0.01917
621.00,-0.01802
622.00,-0.01700
623.00,-0.01691
624.00,-0.01794
625.00,-0.01904
626.00,-0.01942
627.00,-0.01901
628.00,-0.01773
629.00,-0.01685
630.00,-0.01685
631.00,-0.01768
632.00,-0.01875
633.00,-0.01950
634.00,-0.01891
635.00,-0.01791
636.00,-0.01689
637.00,-0.01668
638.00,-0.01718
639.00,-0.01817
640.00,-0.01898
641.00,-0.01912
642.00,-0.01843
643.00,-0.01736
644.00,-0.01660
645.00,-0.01677
646.00,-0.01756
647.00,-0.01851
648.00,-0.01874
649.00,-0.01830
650.00,-0.01752
651.00,-0.01659
652.00,-0.01646
653.00,-0.01697
654.00,-0.01775
655.00,-0.01859
656.00,-0.01878
657.00,-0.01817
658.00,-0.01707
659.00,-0.01640
660.00,-0.01646
661.00,-0.01694
662.00,-0.01776
663.00,-0.01831
664.00,-0.01840
665.00,-0.01773
666.00,-0.01689
667.00,-0.01617
668.00,-0.01622
669.00,-0.01688
670.00,-0.01772
671.00,-0.01833
672.00,-0.01822
673.00,-0.01758
674.00,-0.01683
675.00,-0.01625
676.00,-0.01604
677.00,-0.01668
678.00,-0.01736
679.00,-0.01790
680.00,-0.01802
681.00,-0.01772
682.00,-0.01703
683.00,-0.01627
684.00,-0.01598
685.00,-0.01630
686.00,-0.01689
687.00,-0.01778
688.00,-0.01808
689.00,-0.01797
690.00,-0.01715
691.00,-0.01624
692.00,-0.01578
693.00,-0.01581
694.00,-0.01639
695.00,-0.01704
696.00,-0.01767
697.00,-0.01788
698.00,-0.01746
699.00,-0.01671
700.00,-0.01595
701.00,-0.01561
702.00,-0.01563
703.00,-0.01643
704.00,-0.01712
705.00,-0.01755
706.00,-0.01767
707.00,-0.01718
708.00,-0.01643
709.00,-0.01582
710.00,-0.01553
711.00,-0.01578
712.00,-0.01643
713.00,-0.01704
714.00,-0.01747
715.00,-0.01758
716.00,-0.01718
717.00,-0.01637
718.00,-0.01572
719.00,-0.01537
720.00,-0.01549
721.00,-0.01602
722.00,-0.01663
723.00,-0.01735
724.00,-0.01741
725.00,-0.01704
726.00,-0.01640
727.00,-0.01558
728.00,-0.01518
729.00,-0.01520
730.00,-0.01549
731.00,-0.01616
732.00,-0.01677
733.00,-0.01727
734.00,-0.01729
735.00,-0.01692
736.00,-0.01619
737.00,-0.01523
738.00,-0.01489
739.00,-0.01509
740.00,-0.01550
741.00,-0.01636
742.00,-0.01695
743.00,-0.01723
744.00,-0.01697
745.00,-0.01642
746.00,-0.01587
747.00,-0.01500
748.00,-0.01472
749.00,-0.01486
750.00,-0.01529
751.00,-0.01610
752.00,-0.01675
753.00,-0.01707
754.00,-0.01692
755.00,-0.01649
756.00,-0.01567
757.00,-0.01498
758.00,-0.01450
759.00,-0.01450
760.00,-0.01492
761.00,-0.01569
762.00,-0.01645
763.00,-0.01698
764.00,-0.01698
765.00,-0.01675
766.00,-0.01593
767.00,-0.01523
768.00,-0.01439
769.00,-0.01433
770.00,-0.01447
771.00,-0.01508
772.00,-0.01585
773.00,-0.01657
774.00,-0.01689
775.00,-0.01691
776.00,-0.01630
777.00,-0.01558
778.00,-0.01485
779.00,-0.01419
780.00,-0.01407
781.00,-0.01421
782.00,-0.01483
783.00,-0.01556
784.00,-0.01627
785.00,-0.01682
786.00,-0.01682
787.00,-0.01634
788.00,-0.01561
789.00,-0.01486
790.00,-0.01421
791.00,-0.01385
792.00,-0.01385
793.00,-0.01434
794.00,-0.01506
795.00,-0.01601
796.00,-0.01654
797.00,-0.01669
798.00,-0.01646
799.00,-0.01587
800.00,-0.01497
801.00,-0.01431
802.00,-0.01389
803.00,-0.01344
804.00,-0.01401
805.00,-0.01456
806.00,-0.01534
807.00,-0.01596
808.00,-0.01657
809.00,-0.01659
810.00,-0.01613
811.00,-0.01546
812.00,-0.01468
813.00,-0.01387
814.00,-0.01328
815.00,-0.01337
816.00,-0.01366
817.00,-0.01436
818.00,-0.01515
819.00,-0.01599
820.00,-0.01645
821.00,-0.01648
822.00,-0.01613
823.00,-0.01527
824.00,-0.01480
825.00,-0.01396
826.00,-0.01335
827.00,-0.01312
828.00,-0.01332
829.00,-0.01401
830.00,-0.01447
831.00,-0.01540
832.00,-0.01599
833.00,-0.01637
834.00,-0.01631
835.00,-0.01553
836.00,-0.01494
837.00,-0.01404
838.00,-0.01343
839.00,-0.01297
840.00,-0.01286
841.00,-0.01326
842.00,-0.01395
843.00,-0.01471
844.00,-0.01541
845.00,-0.01605
846.00,-0.01631
847.00,-0.01599
848.00,-0.01558
849.00,-0.01486
850.00,-0.01413
851.00,-0.01326
852.00,-0.01277
853.00,-0.01266
854.00,-0.01283
855.00,-0.01346
856.00,-0.01439
857.00,-0.01514
858.00,-0.01567
859.00,-0.01607
860.00,-0.01604
861.00,-0.01555
862.00,-0.01489
863.00,-0.01416
864.00,-0.01328
865.00,-0.01277
866.00,-0.01253
867.00,-0.01254
868.00,-0.01282
869.00,-0.01358
870.00,-0.01427
871.00,-0.01500
872.00,-0.01558
873.00,-0.01578
874.00,-0.01570
875.00,-0.01530
876.00,-0.01462
877.00,-0.01379
878.00,-0.01309
879.00,-0.01262
880.00,-0.01245
881.00,-0.01228
882.00,-0.01266
883.00,-0.01338
884.00,-0.01418
885.00,-0.01501
886.00,-0.01529
887.00,-0.01564
888.00,-0.01561
889.00,-0.01529
890.00,-0.01482
891.00,-0.01384
892.00,-0.01300
893.00,-0.01239
894.00,-0.01219
895.00,-0.01233
896.00,-0.01254
897.00,-0.01285
898.00,-0.01343
899.00,-0.01434
900.00,-0.01497
901.00,-0.01505
902.00,-0.01546
903.00,-0.01546
904.00,-0.01472
905.00,-0.01410
906.00,-0.01350
907.00,-0.01263
908.00,-0.01225
909.00,-0.01170
910.00,-0.01198
911.00,-0.01201
912.00,-0.01280
913.00,-0.01347
914.00,-0.01395
915.00,-0.01497
916.00,-0.01500
917.00,-0.01527
918.00,-0.01530
919.00,-0.01460
920.00,-0.01416
921.00,-0.01349
922.00,-0.01295
923.00,-0.01233
924.00,-0.01199
925.00,-0.01189
926.00,-0.01213
927.00,-0.01218
928.00,-0.01300
929.00,-0.01347
930.00,-0.01434
931.00,-0.01468
932.00,-0.01518
933.00,-0.01509
934.00,-0.01485
935.00,-0.01466
936.00,-0.01392
937.00,-0.01332
938.00,-0.01253
939.00,-0.01215
940.00,-0.01166
941.00,-0.01178
942.00,-0.01189
943.00,-0.01215
944.00,-0.01285
945.00,-0.01343
946.00,-0.01401
947.00,-0.01459
948.00,-0.01480
949.00,-0.01498
950.00,-0.01491
951.00,-0.01450
952.00,-0.01393
953.00,-0.01335
954.00,-0.01286
955.00,-0.01239
956.00,-0.01196
957.00,-0.01166
958.00,-0.01161
959.00,-0.01195
960.00,-0.01222
961.00,-0.01279
962.00,-0.01332
963.00,-0.01401
964.00,-0.01448
965.00,-0.01480
966.00,-0.01486
967.00,-0.01459
968.00,-0.01427
969.00,-0.01378
970.00,-0.01312
971.00,-0.01244
972.00,-0.01190
973.00,-0.01175
974.00,-0.01152
975.00,-0.01144
976.00,-0.01183
977.00,-0.01190
978.00,-0.01259
979.00,-0.01308
980.00,-0.01379
981.00,-0.01416
982.00,-0.01430
983.00,-0.01437
984.00,-0.01428
985.00,-0.01405
986.00,-0.01360
987.00,-0.01320
988.00,-0.01276
989.00,-0.01230
990.00,-0.01170
991.00,-0.01147
992.00,-0.01134
993.00,-0.01135
994.00,-0.01163
995.00,-0.01204
996.00,-0.01250
997.00,-0.01300
998.00,-0.01363
999.00,-0.01411
1000.00,-0.01430
1001.00,-0.01442
1002.00,-0.01431
1003.00,-0.01401
1004.00,-0.01349
1005.00,-0.01300
1006.00,-0.01254
1007.00,-0.01208
1008.00,-0.01166
1009.00,-0.01140
1010.00,-0.01123
1011.00,-0.01138
1012.00,-0.01147
1013.00,-0.01170
1014.00,-0.01212
1015.00,-0.01257
1016.00,-0.01299
1017.00,-0.01337
1018.00,-0.01361
1019.00,-0.01382
1020.00,-0.01392
1021.00,-0.01385
1022.00,-0.01366
1023.00,-0.01332
1024.00,-0.01277
1025.00,-0.01233
1026.00,-0.01178
1027.00,-0.01141
1028.00,-0.01117
1029.00,-0.01106
1030.00,-0.01115
1031.00,-0.01125
1032.00,-0.01152
1033.00,-0.01198
1034.00,-0.01236
1035.00,-0.01273
1036.00,-0.01314
1037.00,-0.01367
1038.00,-0.01379
1039.00,-0.01375
1040.00,-0.01358
1041.00,-0.01343
1042.00,-0.01321
1043.00,-0.01276
1044.00,-0.01233
1045.00,-0.01192
1046.00,-0.01155
1047.00,-0.01138
1048.00,-0.01105
1049.00,-0.01102
1050.00,-0.01125
1051.00,-0.01132
1052.00,-0.01126
1053.00,-0.01178
1054.00,-0.01233
1055.00,-0.01227
1056.00,-0.01294
1057.00,-0.01337
1058.00,-0.01323
1059.00,-0.01332
1060.00,-0.01357
1061.00,-0.01329
1062.00,-0.01271
1063.00,-0.01266
1064.00,-0.01221
1065.00,-0.01164
1066.00,-0.01138
1067.00,-0.01100
1068.00,-0.01073
1069.00,-0.01080
1070.00,-0.01059
1071.00,-0.01094
1072.00,-0.01126
1073.00,-0.01149
1074.00,-0.01184
1075.00,-0.01202
1076.00,-0.01262
1077.00,-0.01257
1078.00,-0.01302
1079.00,-0.01317
1080.00,-0.01311
1081.00,-0.01324
1082.00,-0.01263
1083.00,-0.01251
1084.00,-0.01228
1085.00,-0.01170
1086.00,-0.01157
1087.00,-0.01115
1088.00,-0.01085
1089.00,-0.01070
1090.00,-0.01067
1091.00,-0.01054
1092.00,-0.01062
1093.00,-0.01076
1094.00,-0.01120
1095.00,-0.01125
1096.00,-0.01152
1097.00,-0.01210
1098.00,-0.01225
1099.00,-0.01265
1100.00,-0.01288