File: films/spectrometro uv1000/20230310_Sample-03.txt
"File_221110_220341 - RawData"
"Wavelength nm.","Abs."
300.00,0.04185
301.00,0.07266
302.00,0.04433
303.00,0.05632
304.00,0.03766
305.00,0.03835
306.00,0.02945
307.00,0.02530
308.00,0.02887
309.00,0.02048
310.00,0.01620
311.00,0.01453
312.00,0.01070
313.00,0.00575
314.00,0.00308
315.00,0.00049
316.00,-0.00095
317.00,-0.00334
318.00,-0.00352
319.00,-0.00540
320.00,-0.00858
321.00,-0.00935
322.00,-0.01036
323.00,-0.01384
324.00,-0.01563
325.00,-0.01506
326.00,-0.01543
327.00,-0.01715
328.00,-0.01718
329.00,-0.01727
330.00,-0.01961
331.00,-0.02094
332.00,-0.02032
333.00,-0.02110
334.00,-0.02223
335.00,-0.02290
336.00,-0.02170
337.00,-0.02257
338.00,-0.02385
339.00,-0.02403
340.00,-0.02455
341.00,-0.02443
342.00,-0.02533
343.00,-0.02458
344.00,-0.02415
345.00,-0.02472
346.00,-0.02571
347.00,-0.02548
348.00,-0.02460
349.00,-0.02519
350.00,-0.02631
351.00,-0.02606
352.00,-0.02519
353.00,-0.02550
354.00,-0.02617
355.00,-0.02614
356.00,-0.02522
357.00,-0.02545
358.00,-0.02632
359.00,-0.02670
360.00,-0.02567
361.00,-0.02534
362.00,-0.02603
363.00,-0.02675
364.00,-0.02625
365.00,-0.02557
366.00,-0.02547
367.00,-0.02657
368.00,-0.02686
369.00,-0.02576
370.00,-0.02516
371.00,-0.02589
372.00,-0.02655
373.00,-0.02626
374.00,-0.02538
375.00,-0.02504
376.00,-0.02576
377.00,-0.02647
378.00,-0.02559
379.00,-0.02467
380.00,-0.02501
381.00,-0.02574
382.00,-0.02606
383.00,-0.02553
384.00,-0.02493
385.00,-0.02489
386.00,-0.02596
387.00,-0.02637
388.00,-0.02579
389.00,-0.02496
390.00,-0.02473
391.00,-0.02553
392.00,-0.02623
393.00,-0.02582
394.00,-0.02493
395.00,-0.02472
396.00,-0.02513
397.00,-0.02594
398.00,-0.02597
399.00,-0.02525
400.00,-0.02469
401.00,-0.02464
402.00,-0.02542
403.00,-0.02574
404.00,-0.02527
405.00,-0.02464
406.00,-0.02448
407.00,-0.02486
408.00,-0.02544
409.00,-0.02554
410.00,-0.02501
411.00,-0.02423
412.00,-0.02423
413.00,-0.02472
414.00,-0.02525
415.00,-0.02510
416.00,-0.02457
417.00,-0.02400
418.00,-0.02382
419.00,-0.02435
420.00,-0.02490
421.00,-0.02489
422.00,-0.02431
423.00,-0.02371
424.00,-0.02370
425.00,-0.02406
426.00,-0.02463
427.00,-0.02461
428.00,-0.02422
429.00,-0.02357
430.00,-0.02336
431.00,-0.02364
432.00,-0.02406
433.00,-0.02448
434.00,-0.02412
435.00,-0.02347
436.00,-0.02306
437.00,-0.02324
438.00,-0.02370
439.00,-0.02408
440.00,-0.02405
441.00,-0.02362
442.00,-0.02290
443.00,-0.02272
444.00,-0.02298
445.00,-0.02348
446.00,-0.02396
447.00,-0.02370
448.00,-0.02319
449.00,-0.02261
450.00,-0.02252
451.00,-0.02287
452.00,-0.02341
453.00,-0.02367
454.00,-0.02339
455.00,-0.02301
456.00,-0.02235
457.00,-0.02211
458.00,-0.02234
459.00,-0.02307
460.00,-0.02332
461.00,-0.02332
462.00,-0.02292
463.00,-0.02229
464.00,-0.02193
465.00,-0.02200
466.00,-0.02229
467.00,-0.02280
468.00,-0.02324
469.00,-0.02309
470.00,-0.02246
471.00,-0.02184
472.00,-0.02156
473.00,-0.02177
474.00,-0.02217
475.00,-0.02274
476.00,-0.02292
477.00,-0.02261
478.00,-0.02202
479.00,-0.02127
480.00,-0.02110
481.00,-0.02153
482.00,-0.02211
483.00,-0.02245
484.00,-0.02251
485.00,-0.02219
486.00,-0.02156
487.00,-0.02110
488.00,-0.02072
489.00,-0.02087
490.00,-0.02148
491.00,-0.02205
492.00,-0.02238
493.00,-0.02237
494.00,-0.02177
495.00,-0.02092
496.00,-0.02058
497.00,-0.02026
498.00,-0.02060
499.00,-0.02130
500.00,-0.02197
501.00,-0.02194
502.00,-0.02165
503.00,-0.02110
504.00,-0.02055
505.00,-0.02014
506.00,-0.02017
507.00,-0.02072
508.00,-0.02136
509.00,-0.02171
510.00,-0.02185
511.00,-0.02150
512.00,-0.02097
513.00,-0.02045
514.00,-0.01987
515.00,-0.01981
516.00,-0.02008
517.00,-0.02068
518.00,-0.02141
519.00,-0.02170
520.00,-0.02161
521.00,-0.02094
522.00,-0.02045
523.00,-0.01970
524.00,-0.01942
525.00,-0.01961
526.00,-0.02022
527.00,-0.02090
528.00,-0.02138
529.00,-0.02151
530.00,-0.02124
531.00,-0.02068
532.00,-0.02010
533.00,-0.01939
534.00,-0.01910
535.00,-0.01929
536.00,-0.02002
537.00,-0.02074
538.00,-0.02100
539.00,-0.02130
540.00,-0.02101
541.00,-0.02049
542.00,-0.01981
543.00,-0.01906
544.00,-0.01889
545.00,-0.01884
546.00,-0.01926
547.00,-0.01984
548.00,-0.02066
549.00,-0.02100
550.00,-0.02097
551.00,-0.02036
552.00,-0.01978
553.00,-0.01894
554.00,-0.01875
555.00,-0.01834
556.00,-0.01880
557.00,-0.01923
558.00,-0.01987
559.00,-0.02043
560.00,-0.02069
561.00,-0.02077
562.00,-0.02036
563.00,-0.01958
564.00,-0.01874
565.00,-0.01823
566.00,-0.01801
567.00,-0.01816
568.00,-0.01880
569.00,-0.01942
570.00,-0.02013
571.00,-0.02063
572.00,-0.02057
573.00,-0.02034
574.00,-0.01970
575.00,-0.01889
576.00,-0.01822
577.00,-0.01778
578.00,-0.01785
579.00,-0.01814
580.00,-0.01868
581.00,-0.01944
582.00,-0.02005
583.00,-0.02039
584.00,-0.02045
585.00,-0.02016
586.00,-0.01942
587.00,-0.01880
588.00,-0.01804
589.00,-0.01768
590.00,-0.01738
591.00,-0.01782
592.00,-0.01830
593.00,-0.01877
594.00,-0.01936
595.00,-0.01981
596.00,-0.02028
597.00,-0.02013
598.00,-0.01967
599.00,-0.01881
600.00,-0.01816
601.00,-0.01758
602.00,-0.01727
603.00,-0.01741
604.00,-0.01758
605.00,-0.01831
606.00,-0.01900
607.00,-0.01959
608.00,-0.01997
609.00,-0.02011
610.00,-0.01985
611.00,-0.01936
612.00,-0.01878
613.00,-0.01804
614.00,-0.01753
615.00,-0.01695
616.00,-0.01689
617.00,-0.01729
618.00,-0.01775
619.00,-0.01836
620.00,-0.01904
621.00,-0.01971
622.00,-0.01981
623.00,-0.01971
624.00,-0.01942
625.00,-0.01900
626.00,-0.01826
627.00,-0.01761
628.00,-0.01706
629.00,-0.01682
630.00,-0.01685
631.00,-0.01697
632.00,-0.01758
633.00,-0.01826
634.00,-0.01886
635.00,-0.01929
636.00,-0.01962
637.00,-0.01968
638.00,-0.01942
639.00,-0.01895
640.00,-0.01831
641.00,-0.01762
642.00,-0.01715
643.00,-0.01669
644.00,-0.01651
645.00,-0.01677
646.00,-0.01698
647.00,-0.01756
648.00,-0.01820
649.00,-0.01883
650.00,-0.01907
651.00,-0.01933
652.00,-0.01941
653.00,-0.01909
654.00,-0.01863
655.00,-0.01805
656.00,-0.01740
657.00,-0.01692
658.00,-0.01654
659.00,-0.01642
660.00,-0.01651
661.00,-0.01682
662.00,-0.01732
663.00,-0.01779
664.00,-0.01839
665.00,-0.01892
666.00,-0.01918
667.00,-0.01924
668.00,-0.01913
669.00,-0.01888
670.00,-0.01828
671.00,-0.01756
672.00,-0.01680
673.00,-0.01646
674.00,-0.01637
675.00,-0.01630
676.00,-0.01620
677.00,-0.01659
678.00,-0.01701
679.00,-0.01753
680.00,-0.01820
681.00,-0.01857
682.00,-0.01901
683.00,-0.01906
684.00,-0.01903
685.00,-0.01889
686.00,-0.01849
687.00,-0.01790
688.00,-0.01732
689.00,-0.01682
690.00,-0.01614
691.00,-0.01596
692.00,-0.01595
693.00,-0.01619
694.00,-0.01646
695.00,-0.01698
696.00,-0.01750
697.00,-0.01797
698.00,-0.01823
699.00,-0.01852
700.00,-0.01875
701.00,-0.01894
702.00,-0.01857
703.00,-0.01826
704.00,-0.01785
705.00,-0.01730
706.00,-0.01683
707.00,-0.01631
708.00,-0.01598
709.00,-0.01585
710.00,-0.01596
711.00,-0.01607
712.00,-0.01648
713.00,-0.01683
714.00,-0.01733
715.00,-0.01779
716.00,-0.01831
717.00,-0.01855
718.00,-0.01865
719.00,-0.01857
720.00,-0.01826
721.00,-0.01802
722.00,-0.01756
723.00,-0.01712
724.00,-0.01672
725.00,-0.01617
726.00,-0.01601
727.00,-0.01564
728.00,-0.01559
729.00,-0.01581
730.00,-0.01601
731.00,-0.01631
732.00,-0.01669
733.00,-0.01718
734.00,-0.01765
735.00,-0.01797
736.00,-0.01823
737.00,-0.01831
738.00,-0.01842
739.00,-0.01817
740.00,-0.01785
741.00,-0.01756
742.00,-0.01709
743.00,-0.01672
744.00,-0.01628
745.00,-0.01595
746.00,-0.01573
747.00,-0.01559
748.00,-0.01558
749.00,-0.01566
750.00,-0.01596
751.00,-0.01630
752.00,-0.01671
753.00,-0.01707
754.00,-0.01738
755.00,-0.01772
756.00,-0.01788
757.00,-0.01805
758.00,-0.01796
759.00,-0.01791
760.00,-0.01784
761.00,-0.01743
762.00,-0.01717
763.00,-0.01674
764.00,-0.01630
765.00,-0.01613
766.00,-0.01567
767.00,-0.01544
768.00,-0.01514
769.00,-0.01547
770.00,-0.01563
771.00,-0.01598
772.00,-0.01622
773.00,-0.01657
774.00,-0.01683
775.00,-0.01720
776.00,-0.01738
777.00,-0.01765
778.00,-0.01776
779.00,-0.01779
780.00,-0.01773
781.00,-0.01764
782.00,-0.01735
783.00,-0.01703
784.00,-0.01669
785.00,-0.01640
786.00,-0.01601
787.00,-0.01570
788.00,-0.01547
789.00,-0.01526
790.00,-0.01524
791.00,-0.01537
792.00,-0.01540
793.00,-0.01559
794.00,-0.01587
795.00,-0.01634
796.00,-0.01639
797.00,-0.01672
798.00,-0.01717
799.00,-0.01736
800.00,-0.01730
801.00,-0.01762
802.00,-0.01764
803.00,-0.01729
804.00,-0.01729
805.00,-0.01700
806.00,-0.01669
807.00,-0.01643
808.00,-0.01613
809.00,-0.01576
810.00,-0.01537
811.00,-0.01520
812.00,-0.01508
813.00,-0.01506
814.00,-0.01512
815.00,-0.01529
816.00,-0.01541
817.00,-0.01556
818.00,-0.01590
819.00,-0.01617
820.00,-0.01630
821.00,-0.01662
822.00,-0.01683
823.00,-0.01698
824.00,-0.01730
825.00,-0.01724
826.00,-0.01714
827.00,-0.01707
828.00,-0.01703
829.00,-0.01674
830.00,-0.01633
831.00,-0.01613
832.00,-0.01578
833.00,-0.01549
834.00,-0.01546
835.00,-0.01501
836.00,-0.01494
837.00,-0.01489
838.00,-0.01494
839.00,-0.01497
840.00,-0.01505
841.00,-0.01527
842.00,-0.01558
843.00,-0.01579
844.00,-0.01595
845.00,-0.01624
846.00,-0.01654
847.00,-0.01666
848.00,-0.01694
849.00,-0.01701
850.00,-0.01711
851.00,-0.01683
852.00,-0.01675
853.00,-0.01660
854.00,-0.01642
855.00,-0.01634
856.00,-0.01613
857.00,-0.01596
858.00,-0.01567
859.00,-0.01529
860.00,-0.01503
861.00,-0.01497
862.00,-0.01482
863.00,-0.01480
864.00,-0.01469
865.00,-0.01468
866.00,-0.01492
867.00,-0.01503
868.00,-0.01518
869.00,-0.01537
870.00,-0.01553
871.00,-0.01578
872.00,-0.01608
873.00,-0.01619
874.00,-0.01634
875.00,-0.01648
876.00,-0.01660
877.00,-0.01659
878.00,-0.01660
879.00,-0.01651
880.00,-0.01642
881.00,-0.01608
882.00,-0.01595
883.00,-0.01582
884.00,-0.01555
885.00,-0.01537
886.00,-0.01500
887.00,-0.01489
888.00,-0.01477
889.00,-0.01463
890.00,-0.01488
891.00,-0.01456
892.00,-0.01450
893.00,-0.01447
894.00,-0.01468
895.00,-0.01494
896.00,-0.01508
897.00,-0.01506
898.00,-0.01514
899.00,-0.01553
900.00,-0.01573
901.00,-0.01576
902.00,-0.01601
903.00,-0.01619
904.00,-0.01604
905.00,-0.01617
906.00,-0.01620
907.00,-0.01604
908.00,-0.01610
909.00,-0.01582
910.00,-0.01599
911.00,-0.01567
912.00,-0.01564
913.00,-0.01537
914.00,-0.01500
915.00,-0.01518
916.00,-0.01462
917.00,-0.01460
918.00,-0.01460
919.00,-0.01424
920.00,-0.01434
921.00,-0.01434
922.00,-0.01450
923.00,-0.01437
924.00,-0.01457
925.00,-0.01462
926.00,-0.01492
927.00,-0.01482
928.00,-0.01518
929.00,-0.01518
930.00,-0.01559
931.00,-0.01550
932.00,-0.01593
933.00,-0.01567
934.00,-0.01570
935.00,-0.01601
936.00,-0.01587
937.00,-0.01599
938.00,-0.01578
939.00,-0.01578
940.00,-0.01550
941.00,-0.01559
942.00,-0.01535
943.00,-0.01514
944.00,-0.01520
945.00,-0.01491
946.00,-0.01462
947.00,-0.01465
948.00,-0.01442
949.00,-0.01436
950.00,-0.01431
951.00,-0.01430
952.00,-0.01411
953.00,-0.01413
954.00,-0.01430
955.00,-0.01442
956.00,-0.01447
957.00,-0.01447
958.00,-0.01457
959.00,-0.01477
960.00,-0.01485
961.00,-0.01505
962.00,-0.01517
963.00,-0.01532
964.00,-0.01544
965.00,-0.01552
966.00,-0.01567
967.00,-0.01552
968.00,-0.01552
969.00,-0.01553
970.00,-0.01556
971.00,-0.01544
972.00,-0.01527
973.00,-0.01530
974.00,-0.01523
975.00,-0.01506
976.00,-0.01491
977.00,-0.01456
978.00,-0.01456
979.00,-0.01447
980.00,-0.01450
981.00,-0.01436
982.00,-0.01408
983.00,-0.01395
984.00,-0.01392
985.00,-0.01384
986.00,-0.01385
987.00,-0.01393
988.00,-0.01408
989.00,-0.01419
990.00,-0.01418
991.00,-0.01421
992.00,-0.01433
993.00,-0.01450
994.00,-0.01459
995.00,-0.01474
996.00,-0.01483
997.00,-0.01495
998.00,-0.01509
999.00,-0.01526
1000.00,-0.01520
1001.00,-0.01527
1002.00,-0.01535
1003.00,-0.01534
1004.00,-0.01518
1005.00,-0.01517
1006.00,-0.01506
1007.00,-0.01503
1008.00,-0.01485
1009.00,-0.01480
1010.00,-0.01463
1011.00,-0.01465
1012.00,-0.01448
1013.00,-0.01416
1014.00,-0.01410
1015.00,-0.01399
1016.00,-0.01387
1017.00,-0.01376
1018.00,-0.01361
1019.00,-0.01360
1020.00,-0.01363
1021.00,-0.01358
1022.00,-0.01355
1023.00,-0.01378
1024.00,-0.01366
1025.00,-0.01360
1026.00,-0.01376
1027.00,-0.01384
1028.00,-0.01395
1029.00,-0.01404
1030.00,-0.01421
1031.00,-0.01419
1032.00,-0.01428
1033.00,-0.01450
1034.00,-0.01453
1035.00,-0.01465
1036.00,-0.01462
1037.00,-0.01477
1038.00,-0.01479
1039.00,-0.01479
1040.00,-0.01468
1041.00,-0.01471
1042.00,-0.01468
1043.00,-0.01468
1044.00,-0.01445
1045.00,-0.01445
1046.00,-0.01433
1047.00,-0.01430
1048.00,-0.01416
1049.00,-0.01404
1050.00,-0.01418
1051.00,-0.01402
1052.00,-0.01358
1053.00,-0.01372
1054.00,-0.01370
1055.00,-0.01317
1056.00,-0.01332
1057.00,-0.01338
1058.00,-0.01305
1059.00,-0.01311
1060.00,-0.01332
1061.00,-0.01321
1062.00,-0.01309
1063.00,-0.01335
1064.00,-0.01334
1065.00,-0.01340
1066.00,-0.01360
1067.00,-0.01349
1068.00,-0.01358
1069.00,-0.01387
1070.00,-0.01378
1071.00,-0.01392
1072.00,-0.01385
1073.00,-0.01398
1074.00,-0.01408
1075.00,-0.01399
1076.00,-0.01437
1077.00,-0.01410
1078.00,-0.01439
1079.00,-0.01430
1080.00,-0.01430
1081.00,-0.01445
1082.00,-0.01393
1083.00,-0.01401
1084.00,-0.01408
1085.00,-0.01389
1086.00,-0.01399
1087.00,-0.01364
1088.00,-0.01360
1089.00,-0.01358
1090.00,-0.01344
1091.00,-0.01328
1092.00,-0.01332
1093.00,-0.01320
1094.00,-0.01331
1095.00,-0.01306
1096.00,-0.01282
1097.00,-0.01305
1098.00,-0.01274
1099.00,-0.01279
1100.00,-0.01282