File: films/spectrometro uv1000/20230310_Sample-07_back.txt
"File_221110_221531 - RawData"
"Wavelength nm.";"Abs."
300,00;-1,65318
301,00;-1,49529
302,00;-1,33772
303,00;-1,19426
304,00;-1,06902
305,00;-0,95427
306,00;-0,86269
307,00;-0,76106
308,00;-0,67024
309,00;-0,59528
310,00;-0,51903
311,00;-0,45456
312,00;-0,40208
313,00;-0,35342
314,00;-0,31175
315,00;-0,27542
316,00;-0,24504
317,00;-0,21712
318,00;-0,19302
319,00;-0,17291
320,00;-0,15529
321,00;-0,13962
322,00;-0,12720
323,00;-0,11577
324,00;-0,10533
325,00;-0,09641
326,00;-0,08887
327,00;-0,08170
328,00;-0,07561
329,00;-0,07011
330,00;-0,06668
331,00;-0,06261
332,00;-0,05922
333,00;-0,05589
334,00;-0,05396
335,00;-0,05092
336,00;-0,04843
337,00;-0,04567
338,00;-0,04492
339,00;-0,04324
340,00;-0,04376
341,00;-0,03828
342,00;-0,03702
343,00;-0,03563
344,00;-0,03513
345,00;-0,03407
346,00;-0,03358
347,00;-0,03307
348,00;-0,03264
349,00;-0,03238
350,00;-0,03181
351,00;-0,03177
352,00;-0,03127
353,00;-0,03082
354,00;-0,03017
355,00;-0,03027
356,00;-0,02986
357,00;-0,03003
358,00;-0,02980
359,00;-0,02924
360,00;-0,02942
361,00;-0,02875
362,00;-0,02885
363,00;-0,02863
364,00;-0,02893
365,00;-0,02899
366,00;-0,02831
367,00;-0,02856
368,00;-0,02820
369,00;-0,02829
370,00;-0,02817
371,00;-0,02800
372,00;-0,02831
373,00;-0,02792
374,00;-0,02826
375,00;-0,02827
376,00;-0,02795
377,00;-0,02861
378,00;-0,02800
379,00;-0,02809
380,00;-0,02847
381,00;-0,02783
382,00;-0,02818
383,00;-0,02782
384,00;-0,02759
385,00;-0,02798
386,00;-0,02765
387,00;-0,02751
388,00;-0,02774
389,00;-0,02711
390,00;-0,02696
391,00;-0,02751
392,00;-0,02678
393,00;-0,02687
394,00;-0,02701
395,00;-0,02638
396,00;-0,02690
397,00;-0,02682
398,00;-0,02621
399,00;-0,02678
400,00;-0,02663
401,00;-0,02609
402,00;-0,02664
403,00;-0,02640
404,00;-0,02586
405,00;-0,02660
406,00;-0,02626
407,00;-0,02588
408,00;-0,02641
409,00;-0,02626
410,00;-0,02568
411,00;-0,02625
412,00;-0,02629
413,00;-0,02568
414,00;-0,02606
415,00;-0,02629
416,00;-0,02568
417,00;-0,02586
418,00;-0,02632
419,00;-0,02579
420,00;-0,02557
421,00;-0,02623
422,00;-0,02588
423,00;-0,02533
424,00;-0,02602
425,00;-0,02605
426,00;-0,02533
427,00;-0,02570
428,00;-0,02614
429,00;-0,02538
430,00;-0,02548
431,00;-0,02591
432,00;-0,02554
433,00;-0,02499
434,00;-0,02545
435,00;-0,02577
436,00;-0,02510
437,00;-0,02507
438,00;-0,02571
439,00;-0,02548
440,00;-0,02487
441,00;-0,02515
442,00;-0,02571
443,00;-0,02527
444,00;-0,02472
445,00;-0,02530
446,00;-0,02550
447,00;-0,02466
448,00;-0,02454
449,00;-0,02524
450,00;-0,02538
451,00;-0,02467
452,00;-0,02467
453,00;-0,02527
454,00;-0,02480
455,00;-0,02426
456,00;-0,02457
457,00;-0,02510
458,00;-0,02467
459,00;-0,02405
460,00;-0,02451
461,00;-0,02502
462,00;-0,02458
463,00;-0,02400
464,00;-0,02426
465,00;-0,02480
466,00;-0,02441
467,00;-0,02382
468,00;-0,02403
469,00;-0,02469
470,00;-0,02452
471,00;-0,02373
472,00;-0,02393
473,00;-0,02458
474,00;-0,02438
475,00;-0,02367
476,00;-0,02368
477,00;-0,02443
478,00;-0,02444
479,00;-0,02377
480,00;-0,02351
481,00;-0,02408
482,00;-0,02449
483,00;-0,02376
484,00;-0,02322
485,00;-0,02359
486,00;-0,02428
487,00;-0,02412
488,00;-0,02333
489,00;-0,02313
490,00;-0,02376
491,00;-0,02414
492,00;-0,02365
493,00;-0,02313
494,00;-0,02327
495,00;-0,02385
496,00;-0,02391
497,00;-0,02322
498,00;-0,02281
499,00;-0,02325
500,00;-0,02394
501,00;-0,02350
502,00;-0,02290
503,00;-0,02289
504,00;-0,02353
505,00;-0,02383
506,00;-0,02338
507,00;-0,02269
508,00;-0,02277
509,00;-0,02322
510,00;-0,02359
511,00;-0,02304
512,00;-0,02238
513,00;-0,02266
514,00;-0,02325
515,00;-0,02351
516,00;-0,02307
517,00;-0,02235
518,00;-0,02246
519,00;-0,02313
520,00;-0,02338
521,00;-0,02289
522,00;-0,02257
523,00;-0,02232
524,00;-0,02301
525,00;-0,02341
526,00;-0,02289
527,00;-0,02237
528,00;-0,02226
529,00;-0,02277
530,00;-0,02327
531,00;-0,02304
532,00;-0,02249
533,00;-0,02206
534,00;-0,02232
535,00;-0,02295
536,00;-0,02306
537,00;-0,02252
538,00;-0,02188
539,00;-0,02197
540,00;-0,02254
541,00;-0,02287
542,00;-0,02277
543,00;-0,02217
544,00;-0,02188
545,00;-0,02203
546,00;-0,02264
547,00;-0,02290
548,00;-0,02245
549,00;-0,02190
550,00;-0,02170
551,00;-0,02216
552,00;-0,02263
553,00;-0,02263
554,00;-0,02219
555,00;-0,02170
556,00;-0,02158
557,00;-0,02205
558,00;-0,02246
559,00;-0,02261
560,00;-0,02184
561,00;-0,02151
562,00;-0,02153
563,00;-0,02205
564,00;-0,02248
565,00;-0,02240
566,00;-0,02188
567,00;-0,02145
568,00;-0,02145
569,00;-0,02190
570,00;-0,02242
571,00;-0,02246
572,00;-0,02191
573,00;-0,02148
574,00;-0,02133
575,00;-0,02161
576,00;-0,02220
577,00;-0,02240
578,00;-0,02211
579,00;-0,02162
580,00;-0,02122
581,00;-0,02144
582,00;-0,02194
583,00;-0,02242
584,00;-0,02216
585,00;-0,02176
586,00;-0,02121
587,00;-0,02119
588,00;-0,02156
589,00;-0,02211
590,00;-0,02226
591,00;-0,02199
592,00;-0,02151
593,00;-0,02107
594,00;-0,02103
595,00;-0,02150
596,00;-0,02205
597,00;-0,02208
598,00;-0,02170
599,00;-0,02121
600,00;-0,02100
601,00;-0,02119
602,00;-0,02161
603,00;-0,02191
604,00;-0,02199
605,00;-0,02162
606,00;-0,02116
607,00;-0,02100
608,00;-0,02121
609,00;-0,02168
610,00;-0,02190
611,00;-0,02193
612,00;-0,02170
613,00;-0,02122
614,00;-0,02098
615,00;-0,02112
616,00;-0,02144
617,00;-0,02191
618,00;-0,02182
619,00;-0,02164
620,00;-0,02132
621,00;-0,02098
622,00;-0,02095
623,00;-0,02144
624,00;-0,02177
625,00;-0,02190
626,00;-0,02184
627,00;-0,02142
628,00;-0,02112
629,00;-0,02084
630,00;-0,02104
631,00;-0,02139
632,00;-0,02185
633,00;-0,02179
634,00;-0,02147
635,00;-0,02113
636,00;-0,02095
637,00;-0,02089
638,00;-0,02121
639,00;-0,02159
640,00;-0,02179
641,00;-0,02193
642,00;-0,02159
643,00;-0,02121
644,00;-0,02077
645,00;-0,02092
646,00;-0,02110
647,00;-0,02129
648,00;-0,02151
649,00;-0,02150
650,00;-0,02126
651,00;-0,02075
652,00;-0,02072
653,00;-0,02075
654,00;-0,02089
655,00;-0,02147
656,00;-0,02156
657,00;-0,02158
658,00;-0,02132
659,00;-0,02094
660,00;-0,02075
661,00;-0,02078
662,00;-0,02094
663,00;-0,02112
664,00;-0,02142
665,00;-0,02162
666,00;-0,02141
667,00;-0,02100
668,00;-0,02077
669,00;-0,02066
670,00;-0,02075
671,00;-0,02106
672,00;-0,02130
673,00;-0,02141
674,00;-0,02164
675,00;-0,02138
676,00;-0,02086
677,00;-0,02060
678,00;-0,02057
679,00;-0,02071
680,00;-0,02098
681,00;-0,02126
682,00;-0,02147
683,00;-0,02156
684,00;-0,02126
685,00;-0,02100
686,00;-0,02077
687,00;-0,02074
688,00;-0,02083
689,00;-0,02098
690,00;-0,02121
691,00;-0,02127
692,00;-0,02136
693,00;-0,02116
694,00;-0,02080
695,00;-0,02069
696,00;-0,02051
697,00;-0,02074
698,00;-0,02103
699,00;-0,02124
700,00;-0,02126
701,00;-0,02139
702,00;-0,02106
703,00;-0,02106
704,00;-0,02066
705,00;-0,02057
706,00;-0,02066
707,00;-0,02081
708,00;-0,02097
709,00;-0,02122
710,00;-0,02155
711,00;-0,02138
712,00;-0,02119
713,00;-0,02094
714,00;-0,02055
715,00;-0,02055
716,00;-0,02071
717,00;-0,02090
718,00;-0,02116
719,00;-0,02132
720,00;-0,02122
721,00;-0,02119
722,00;-0,02100
723,00;-0,02081
724,00;-0,02060
725,00;-0,02065
726,00;-0,02074
727,00;-0,02081
728,00;-0,02116
729,00;-0,02129
730,00;-0,02135
731,00;-0,02139
732,00;-0,02122
733,00;-0,02095
734,00;-0,02072
735,00;-0,02063
736,00;-0,02065
737,00;-0,02074
738,00;-0,02101
739,00;-0,02113
740,00;-0,02126
741,00;-0,02138
742,00;-0,02119
743,00;-0,02104
744,00;-0,02080
745,00;-0,02071
746,00;-0,02072
747,00;-0,02077
748,00;-0,02097
749,00;-0,02106
750,00;-0,02124
751,00;-0,02138
752,00;-0,02138
753,00;-0,02115
754,00;-0,02090
755,00;-0,02077
756,00;-0,02066
757,00;-0,02071
758,00;-0,02068
759,00;-0,02101
760,00;-0,02129
761,00;-0,02141
762,00;-0,02145
763,00;-0,02147
764,00;-0,02130
765,00;-0,02124
766,00;-0,02092
767,00;-0,02078
768,00;-0,02061
769,00;-0,02086
770,00;-0,02100
771,00;-0,02133
772,00;-0,02139
773,00;-0,02148
774,00;-0,02142
775,00;-0,02122
776,00;-0,02106
777,00;-0,02097
778,00;-0,02089
779,00;-0,02080
780,00;-0,02086
781,00;-0,02092
782,00;-0,02113
783,00;-0,02127
784,00;-0,02144
785,00;-0,02150
786,00;-0,02147
787,00;-0,02136
788,00;-0,02112
789,00;-0,02106
790,00;-0,02084
791,00;-0,02084
792,00;-0,02098
793,00;-0,02103
794,00;-0,02119
795,00;-0,02141
796,00;-0,02135
797,00;-0,02133
798,00;-0,02144
799,00;-0,02141
800,00;-0,02104
801,00;-0,02115
802,00;-0,02107
803,00;-0,02081
804,00;-0,02106
805,00;-0,02110
806,00;-0,02119
807,00;-0,02124
808,00;-0,02145
809,00;-0,02148
810,00;-0,02133
811,00;-0,02133
812,00;-0,02122
813,00;-0,02116
814,00;-0,02103
815,00;-0,02104
816,00;-0,02100
817,00;-0,02110
818,00;-0,02115
819,00;-0,02122
820,00;-0,02135
821,00;-0,02148
822,00;-0,02147
823,00;-0,02130
824,00;-0,02141
825,00;-0,02124
826,00;-0,02104
827,00;-0,02103
828,00;-0,02109
829,00;-0,02112
830,00;-0,02103
831,00;-0,02115
832,00;-0,02122
833,00;-0,02130
834,00;-0,02145
835,00;-0,02135
836,00;-0,02138
837,00;-0,02132
838,00;-0,02129
839,00;-0,02118
840,00;-0,02106
841,00;-0,02104
842,00;-0,02118
843,00;-0,02107
844,00;-0,02115
845,00;-0,02127
846,00;-0,02141
847,00;-0,02138
848,00;-0,02145
849,00;-0,02153
850,00;-0,02161
851,00;-0,02133
852,00;-0,02124
853,00;-0,02116
854,00;-0,02116
855,00;-0,02100
856,00;-0,02116
857,00;-0,02130
858,00;-0,02126
859,00;-0,02122
860,00;-0,02144
861,00;-0,02153
862,00;-0,02144
863,00;-0,02151
864,00;-0,02132
865,00;-0,02121
866,00;-0,02126
867,00;-0,02113
868,00;-0,02109
869,00;-0,02109
870,00;-0,02104
871,00;-0,02104
872,00;-0,02115
873,00;-0,02116
874,00;-0,02127
875,00;-0,02138
876,00;-0,02145
877,00;-0,02142
878,00;-0,02144
879,00;-0,02141
880,00;-0,02135
881,00;-0,02112
882,00;-0,02109
883,00;-0,02110
884,00;-0,02106
885,00;-0,02110
886,00;-0,02092
887,00;-0,02109
888,00;-0,02119
889,00;-0,02141
890,00;-0,02159
891,00;-0,02144
892,00;-0,02135
893,00;-0,02139
894,00;-0,02141
895,00;-0,02142
896,00;-0,02127
897,00;-0,02106
898,00;-0,02089
899,00;-0,02115
900,00;-0,02107
901,00;-0,02087
902,00;-0,02110
903,00;-0,02138
904,00;-0,02115
905,00;-0,02130
906,00;-0,02135
907,00;-0,02112
908,00;-0,02136
909,00;-0,02104
910,00;-0,02136
911,00;-0,02107
912,00;-0,02122
913,00;-0,02103
914,00;-0,02089
915,00;-0,02118
916,00;-0,02086
917,00;-0,02104
918,00;-0,02129
919,00;-0,02098
920,00;-0,02126
921,00;-0,02142
922,00;-0,02161
923,00;-0,02136
924,00;-0,02150
925,00;-0,02133
926,00;-0,02139
927,00;-0,02104
928,00;-0,02126
929,00;-0,02095
930,00;-0,02116
931,00;-0,02092
932,00;-0,02116
933,00;-0,02092
934,00;-0,02089
935,00;-0,02116
936,00;-0,02110
937,00;-0,02136
938,00;-0,02129
939,00;-0,02139
940,00;-0,02116
941,00;-0,02145
942,00;-0,02126
943,00;-0,02106
944,00;-0,02127
945,00;-0,02113
946,00;-0,02095
947,00;-0,02098
948,00;-0,02083
949,00;-0,02100
950,00;-0,02101
951,00;-0,02109
952,00;-0,02106
953,00;-0,02106
954,00;-0,02121
955,00;-0,02136
956,00;-0,02138
957,00;-0,02129
958,00;-0,02119
959,00;-0,02124
960,00;-0,02104
961,00;-0,02109
962,00;-0,02094
963,00;-0,02094
964,00;-0,02092
965,00;-0,02087
966,00;-0,02097
967,00;-0,02084
968,00;-0,02100
969,00;-0,02103
970,00;-0,02103
971,00;-0,02103
972,00;-0,02113
973,00;-0,02132
974,00;-0,02133
975,00;-0,02126
976,00;-0,02121
977,00;-0,02098
978,00;-0,02089
979,00;-0,02095
980,00;-0,02104
981,00;-0,02083
982,00;-0,02063
983,00;-0,02060
984,00;-0,02049
985,00;-0,02052
986,00;-0,02065
987,00;-0,02075
988,00;-0,02092
989,00;-0,02112
990,00;-0,02104
991,00;-0,02118
992,00;-0,02112
993,00;-0,02118
994,00;-0,02109
995,00;-0,02110
996,00;-0,02103
997,00;-0,02094
998,00;-0,02092
999,00;-0,02084
1000,00;-0,02068
1001,00;-0,02066
1002,00;-0,02060
1003,00;-0,02057
1004,00;-0,02057
1005,00;-0,02060
1006,00;-0,02068
1007,00;-0,02078
1008,00;-0,02086
1009,00;-0,02094
1010,00;-0,02097
1011,00;-0,02107
1012,00;-0,02106
1013,00;-0,02090
1014,00;-0,02084
1015,00;-0,02086
1016,00;-0,02074
1017,00;-0,02060
1018,00;-0,02052
1019,00;-0,02034
1020,00;-0,02037
1021,00;-0,02028
1022,00;-0,02025
1023,00;-0,02026
1024,00;-0,02026
1025,00;-0,02037
1026,00;-0,02034
1027,00;-0,02055
1028,00;-0,02066
1029,00;-0,02078
1030,00;-0,02087
1031,00;-0,02080
1032,00;-0,02081
1033,00;-0,02086
1034,00;-0,02080
1035,00;-0,02068
1036,00;-0,02058
1037,00;-0,02058
1038,00;-0,02046
1039,00;-0,02026
1040,00;-0,02003
1041,00;-0,01996
1042,00;-0,02008
1043,00;-0,02003
1044,00;-0,01997
1045,00;-0,02014
1046,00;-0,02014
1047,00;-0,02037
1048,00;-0,02034
1049,00;-0,02042
1050,00;-0,02072
1051,00;-0,02081
1052,00;-0,02049
1053,00;-0,02075
1054,00;-0,02087
1055,00;-0,02032
1056,00;-0,02051
1057,00;-0,02051
1058,00;-0,02014
1059,00;-0,01997
1060,00;-0,02007
1061,00;-0,01988
1062,00;-0,01961
1063,00;-0,01976
1064,00;-0,01976
1065,00;-0,01967
1066,00;-0,01979
1067,00;-0,01988
1068,00;-0,01991
1069,00;-0,02014
1070,00;-0,01999
1071,00;-0,02026
1072,00;-0,02043
1073,00;-0,02042
1074,00;-0,02046
1075,00;-0,02025
1076,00;-0,02048
1077,00;-0,02008
1078,00;-0,02023
1079,00;-0,02017
1080,00;-0,01999
1081,00;-0,02010
1082,00;-0,01953
1083,00;-0,01953
1084,00;-0,01947
1085,00;-0,01933
1086,00;-0,01959
1087,00;-0,01935
1088,00;-0,01941
1089,00;-0,01956
1090,00;-0,01961
1091,00;-0,01959
1092,00;-0,01982
1093,00;-0,01993
1094,00;-0,02020
1095,00;-0,02010
1096,00;-0,02007
1097,00;-0,02037
1098,00;-0,02016
1099,00;-0,02028
1100,00;-0,02028