File: films/spectrometro uv1000/20230310_Sample-09.txt
"File_221110_222318 - RawData"
"Wavelength nm.";"Abs."
300,00;0,08296
301,00;0,04477
302,00;0,04640
303,00;0,05402
304,00;0,04059
305,00;0,03944
306,00;0,03026
307,00;0,03035
308,00;0,02979
309,00;0,02377
310,00;0,01794
311,00;0,01768
312,00;0,01328
313,00;0,00963
314,00;0,00819
315,00;0,00569
316,00;0,00389
317,00;0,00180
318,00;-0,00127
319,00;-0,00195
320,00;-0,00240
321,00;-0,00467
322,00;-0,00745
323,00;-0,00948
324,00;-0,00964
325,00;-0,01039
326,00;-0,01277
327,00;-0,01305
328,00;-0,01263
329,00;-0,01355
330,00;-0,01564
331,00;-0,01631
332,00;-0,01576
333,00;-0,01640
334,00;-0,01796
335,00;-0,01921
336,00;-0,01814
337,00;-0,01778
338,00;-0,01926
339,00;-0,02049
340,00;-0,02193
341,00;-0,01962
342,00;-0,01999
343,00;-0,02133
344,00;-0,02132
345,00;-0,02058
346,00;-0,02037
347,00;-0,02147
348,00;-0,02211
349,00;-0,02176
350,00;-0,02080
351,00;-0,02153
352,00;-0,02272
353,00;-0,02251
354,00;-0,02144
355,00;-0,02103
356,00;-0,02180
357,00;-0,02278
358,00;-0,02272
359,00;-0,02170
360,00;-0,02116
361,00;-0,02197
362,00;-0,02283
363,00;-0,02267
364,00;-0,02209
365,00;-0,02138
366,00;-0,02174
367,00;-0,02277
368,00;-0,02280
369,00;-0,02174
370,00;-0,02107
371,00;-0,02153
372,00;-0,02214
373,00;-0,02263
374,00;-0,02196
375,00;-0,02087
376,00;-0,02086
377,00;-0,02171
378,00;-0,02220
379,00;-0,02193
380,00;-0,02086
381,00;-0,02048
382,00;-0,02104
383,00;-0,02197
384,00;-0,02237
385,00;-0,02161
386,00;-0,02078
387,00;-0,02066
388,00;-0,02133
389,00;-0,02223
390,00;-0,02223
391,00;-0,02158
392,00;-0,02065
393,00;-0,02045
394,00;-0,02110
395,00;-0,02199
396,00;-0,02222
397,00;-0,02159
398,00;-0,02054
399,00;-0,02025
400,00;-0,02098
401,00;-0,02184
402,00;-0,02214
403,00;-0,02148
404,00;-0,02026
405,00;-0,02022
406,00;-0,02054
407,00;-0,02144
408,00;-0,02208
409,00;-0,02173
410,00;-0,02083
411,00;-0,01987
412,00;-0,01999
413,00;-0,02068
414,00;-0,02156
415,00;-0,02177
416,00;-0,02127
417,00;-0,02042
418,00;-0,01959
419,00;-0,01973
420,00;-0,02051
421,00;-0,02144
422,00;-0,02161
423,00;-0,02090
424,00;-0,01997
425,00;-0,01932
426,00;-0,01967
427,00;-0,02051
428,00;-0,02139
429,00;-0,02139
430,00;-0,02078
431,00;-0,01973
432,00;-0,01909
433,00;-0,01913
434,00;-0,01999
435,00;-0,02078
436,00;-0,02122
437,00;-0,02074
438,00;-0,01994
439,00;-0,01909
440,00;-0,01884
441,00;-0,01927
442,00;-0,02003
443,00;-0,02077
444,00;-0,02097
445,00;-0,02049
446,00;-0,01961
447,00;-0,01866
448,00;-0,01866
449,00;-0,01912
450,00;-0,02029
451,00;-0,02090
452,00;-0,02086
453,00;-0,02016
454,00;-0,01921
455,00;-0,01866
456,00;-0,01851
457,00;-0,01898
458,00;-0,01979
459,00;-0,02061
460,00;-0,02069
461,00;-0,02028
462,00;-0,01930
463,00;-0,01860
464,00;-0,01819
465,00;-0,01852
466,00;-0,01920
467,00;-0,01996
468,00;-0,02057
469,00;-0,02043
470,00;-0,01978
471,00;-0,01881
472,00;-0,01822
473,00;-0,01811
474,00;-0,01840
475,00;-0,01930
476,00;-0,02005
477,00;-0,02043
478,00;-0,02014
479,00;-0,01941
480,00;-0,01854
481,00;-0,01804
482,00;-0,01784
483,00;-0,01819
484,00;-0,01897
485,00;-0,01979
486,00;-0,02020
487,00;-0,02002
488,00;-0,01941
489,00;-0,01860
490,00;-0,01799
491,00;-0,01759
492,00;-0,01765
493,00;-0,01839
494,00;-0,01909
495,00;-0,01964
496,00;-0,01987
497,00;-0,01953
498,00;-0,01898
499,00;-0,01811
500,00;-0,01761
501,00;-0,01735
502,00;-0,01764
503,00;-0,01833
504,00;-0,01917
505,00;-0,01964
506,00;-0,01982
507,00;-0,01947
508,00;-0,01895
509,00;-0,01793
510,00;-0,01736
511,00;-0,01711
512,00;-0,01730
513,00;-0,01776
514,00;-0,01855
515,00;-0,01910
516,00;-0,01941
517,00;-0,01936
518,00;-0,01892
519,00;-0,01823
520,00;-0,01746
521,00;-0,01677
522,00;-0,01697
523,00;-0,01711
524,00;-0,01779
525,00;-0,01860
526,00;-0,01915
527,00;-0,01933
528,00;-0,01909
529,00;-0,01863
530,00;-0,01797
531,00;-0,01721
532,00;-0,01686
533,00;-0,01666
534,00;-0,01706
535,00;-0,01741
536,00;-0,01820
537,00;-0,01888
538,00;-0,01894
539,00;-0,01906
540,00;-0,01871
541,00;-0,01811
542,00;-0,01744
543,00;-0,01678
544,00;-0,01642
545,00;-0,01637
546,00;-0,01672
547,00;-0,01729
548,00;-0,01801
549,00;-0,01851
550,00;-0,01884
551,00;-0,01872
552,00;-0,01826
553,00;-0,01759
554,00;-0,01709
555,00;-0,01648
556,00;-0,01605
557,00;-0,01590
558,00;-0,01620
559,00;-0,01682
560,00;-0,01735
561,00;-0,01825
562,00;-0,01857
563,00;-0,01860
564,00;-0,01834
565,00;-0,01788
566,00;-0,01721
567,00;-0,01656
568,00;-0,01613
569,00;-0,01595
570,00;-0,01601
571,00;-0,01633
572,00;-0,01672
573,00;-0,01723
574,00;-0,01793
575,00;-0,01823
576,00;-0,01814
577,00;-0,01802
578,00;-0,01768
579,00;-0,01709
580,00;-0,01630
581,00;-0,01587
582,00;-0,01550
583,00;-0,01546
584,00;-0,01573
585,00;-0,01624
586,00;-0,01665
587,00;-0,01729
588,00;-0,01764
589,00;-0,01797
590,00;-0,01785
591,00;-0,01773
592,00;-0,01726
593,00;-0,01660
594,00;-0,01590
595,00;-0,01543
596,00;-0,01524
597,00;-0,01534
598,00;-0,01549
599,00;-0,01595
600,00;-0,01634
601,00;-0,01711
602,00;-0,01741
603,00;-0,01794
604,00;-0,01790
605,00;-0,01770
606,00;-0,01726
607,00;-0,01680
608,00;-0,01614
609,00;-0,01559
610,00;-0,01506
611,00;-0,01497
612,00;-0,01503
613,00;-0,01524
614,00;-0,01573
615,00;-0,01627
616,00;-0,01657
617,00;-0,01712
618,00;-0,01746
619,00;-0,01753
620,00;-0,01740
621,00;-0,01712
622,00;-0,01631
623,00;-0,01576
624,00;-0,01534
625,00;-0,01492
626,00;-0,01462
627,00;-0,01465
628,00;-0,01469
629,00;-0,01511
630,00;-0,01553
631,00;-0,01616
632,00;-0,01677
633,00;-0,01706
634,00;-0,01712
635,00;-0,01723
636,00;-0,01703
637,00;-0,01663
638,00;-0,01622
639,00;-0,01558
640,00;-0,01503
641,00;-0,01488
642,00;-0,01457
643,00;-0,01456
644,00;-0,01450
645,00;-0,01471
646,00;-0,01505
647,00;-0,01558
648,00;-0,01610
649,00;-0,01653
650,00;-0,01678
651,00;-0,01691
652,00;-0,01700
653,00;-0,01669
654,00;-0,01633
655,00;-0,01585
656,00;-0,01547
657,00;-0,01498
658,00;-0,01440
659,00;-0,01413
660,00;-0,01404
661,00;-0,01411
662,00;-0,01440
663,00;-0,01460
664,00;-0,01501
665,00;-0,01552
666,00;-0,01604
667,00;-0,01622
668,00;-0,01656
669,00;-0,01666
670,00;-0,01648
671,00;-0,01625
672,00;-0,01578
673,00;-0,01538
674,00;-0,01497
675,00;-0,01442
676,00;-0,01390
677,00;-0,01372
678,00;-0,01358
679,00;-0,01364
680,00;-0,01370
681,00;-0,01416
682,00;-0,01476
683,00;-0,01505
684,00;-0,01550
685,00;-0,01588
686,00;-0,01619
687,00;-0,01645
688,00;-0,01640
689,00;-0,01628
690,00;-0,01582
691,00;-0,01535
692,00;-0,01491
693,00;-0,01459
694,00;-0,01410
695,00;-0,01367
696,00;-0,01347
697,00;-0,01334
698,00;-0,01341
699,00;-0,01346
700,00;-0,01369
701,00;-0,01401
702,00;-0,01437
703,00;-0,01501
704,00;-0,01540
705,00;-0,01573
706,00;-0,01595
707,00;-0,01605
708,00;-0,01595
709,00;-0,01578
710,00;-0,01556
711,00;-0,01515
712,00;-0,01477
713,00;-0,01421
714,00;-0,01384
715,00;-0,01344
716,00;-0,01320
717,00;-0,01300
718,00;-0,01311
719,00;-0,01309
720,00;-0,01315
721,00;-0,01357
722,00;-0,01385
723,00;-0,01434
724,00;-0,01485
725,00;-0,01511
726,00;-0,01537
727,00;-0,01541
728,00;-0,01563
729,00;-0,01556
730,00;-0,01538
731,00;-0,01523
732,00;-0,01486
733,00;-0,01434
734,00;-0,01370
735,00;-0,01347
736,00;-0,01312
737,00;-0,01274
738,00;-0,01263
739,00;-0,01253
740,00;-0,01257
741,00;-0,01276
742,00;-0,01297
743,00;-0,01331
744,00;-0,01361
745,00;-0,01413
746,00;-0,01454
747,00;-0,01485
748,00;-0,01515
749,00;-0,01524
750,00;-0,01532
751,00;-0,01537
752,00;-0,01521
753,00;-0,01500
754,00;-0,01447
755,00;-0,01414
756,00;-0,01369
757,00;-0,01338
758,00;-0,01294
759,00;-0,01273
760,00;-0,01250
761,00;-0,01239
762,00;-0,01239
763,00;-0,01233
764,00;-0,01239
765,00;-0,01280
766,00;-0,01299
767,00;-0,01320
768,00;-0,01341
769,00;-0,01399
770,00;-0,01430
771,00;-0,01468
772,00;-0,01494
773,00;-0,01498
774,00;-0,01489
775,00;-0,01483
776,00;-0,01463
777,00;-0,01437
778,00;-0,01405
779,00;-0,01369
780,00;-0,01340
781,00;-0,01300
782,00;-0,01273
783,00;-0,01236
784,00;-0,01212
785,00;-0,01195
786,00;-0,01186
787,00;-0,01178
788,00;-0,01184
789,00;-0,01199
790,00;-0,01225
791,00;-0,01257
792,00;-0,01286
793,00;-0,01320
794,00;-0,01355
795,00;-0,01392
796,00;-0,01404
797,00;-0,01425
798,00;-0,01440
799,00;-0,01451
800,00;-0,01433
801,00;-0,01443
802,00;-0,01419
803,00;-0,01361
804,00;-0,01352
805,00;-0,01309
806,00;-0,01279
807,00;-0,01237
808,00;-0,01216
809,00;-0,01181
810,00;-0,01149
811,00;-0,01154
812,00;-0,01135
813,00;-0,01143
814,00;-0,01149
815,00;-0,01169
816,00;-0,01195
817,00;-0,01212
818,00;-0,01239
819,00;-0,01285
820,00;-0,01312
821,00;-0,01332
822,00;-0,01364
823,00;-0,01369
824,00;-0,01410
825,00;-0,01418
826,00;-0,01419
827,00;-0,01405
828,00;-0,01398
829,00;-0,01381
830,00;-0,01337
831,00;-0,01321
832,00;-0,01283
833,00;-0,01247
834,00;-0,01218
835,00;-0,01173
836,00;-0,01160
837,00;-0,01137
838,00;-0,01122
839,00;-0,01108
840,00;-0,01106
841,00;-0,01099
842,00;-0,01109
843,00;-0,01137
844,00;-0,01149
845,00;-0,01184
846,00;-0,01199
847,00;-0,01228
848,00;-0,01259
849,00;-0,01303
850,00;-0,01324
851,00;-0,01337
852,00;-0,01343
853,00;-0,01361
854,00;-0,01370
855,00;-0,01364
856,00;-0,01370
857,00;-0,01363
858,00;-0,01335
859,00;-0,01302
860,00;-0,01279
861,00;-0,01251
862,00;-0,01216
863,00;-0,01195
864,00;-0,01154
865,00;-0,01118
866,00;-0,01111
867,00;-0,01086
868,00;-0,01071
869,00;-0,01060
870,00;-0,01060
871,00;-0,01056
872,00;-0,01070
873,00;-0,01080
874,00;-0,01091
875,00;-0,01120
876,00;-0,01155
877,00;-0,01173
878,00;-0,01207
879,00;-0,01236
880,00;-0,01265
881,00;-0,01280
882,00;-0,01286
883,00;-0,01326
884,00;-0,01324
885,00;-0,01340
886,00;-0,01320
887,00;-0,01311
888,00;-0,01306
889,00;-0,01309
890,00;-0,01294
891,00;-0,01256
892,00;-0,01224
893,00;-0,01186
894,00;-0,01176
895,00;-0,01157
896,00;-0,01120
897,00;-0,01082
898,00;-0,01054
899,00;-0,01047
900,00;-0,01036
901,00;-0,01004
902,00;-0,01028
903,00;-0,01039
904,00;-0,01028
905,00;-0,01038
906,00;-0,01065
907,00;-0,01074
908,00;-0,01109
909,00;-0,01106
910,00;-0,01176
911,00;-0,01183
912,00;-0,01227
913,00;-0,01242
914,00;-0,01248
915,00;-0,01299
916,00;-0,01282
917,00;-0,01299
918,00;-0,01315
919,00;-0,01279
920,00;-0,01302
921,00;-0,01292
922,00;-0,01292
923,00;-0,01259
924,00;-0,01237
925,00;-0,01210
926,00;-0,01204
927,00;-0,01138
928,00;-0,01143
929,00;-0,01094
930,00;-0,01096
931,00;-0,01050
932,00;-0,01047
933,00;-0,01013
934,00;-0,00990
935,00;-0,01009
936,00;-0,00983
937,00;-0,00992
938,00;-0,00993
939,00;-0,01012
940,00;-0,01009
941,00;-0,01048
942,00;-0,01057
943,00;-0,01071
944,00;-0,01114
945,00;-0,01128
946,00;-0,01140
947,00;-0,01183
948,00;-0,01184
949,00;-0,01216
950,00;-0,01237
951,00;-0,01251
952,00;-0,01253
953,00;-0,01259
954,00;-0,01268
955,00;-0,01276
956,00;-0,01263
957,00;-0,01253
958,00;-0,01237
959,00;-0,01228
960,00;-0,01198
961,00;-0,01175
962,00;-0,01151
963,00;-0,01129
964,00;-0,01103
965,00;-0,01085
966,00;-0,01059
967,00;-0,01022
968,00;-0,01013
969,00;-0,00989
970,00;-0,00974
971,00;-0,00952
972,00;-0,00945
973,00;-0,00952
974,00;-0,00952
975,00;-0,00951
976,00;-0,00961
977,00;-0,00955
978,00;-0,00984
979,00;-0,01006
980,00;-0,01038
981,00;-0,01051
982,00;-0,01050
983,00;-0,01076
984,00;-0,01097
985,00;-0,01118
986,00;-0,01138
987,00;-0,01161
988,00;-0,01189
989,00;-0,01210
990,00;-0,01213
991,00;-0,01227
992,00;-0,01233
993,00;-0,01236
994,00;-0,01228
995,00;-0,01230
996,00;-0,01225
997,00;-0,01213
998,00;-0,01195
999,00;-0,01183
1000,00;-0,01157
1001,00;-0,01132
1002,00;-0,01117
1003,00;-0,01089
1004,00;-0,01060
1005,00;-0,01035
1006,00;-0,01009
1007,00;-0,01001
1008,00;-0,00975
1009,00;-0,00963
1010,00;-0,00945
1011,00;-0,00940
1012,00;-0,00923
1013,00;-0,00909
1014,00;-0,00911
1015,00;-0,00919
1016,00;-0,00916
1017,00;-0,00922
1018,00;-0,00931
1019,00;-0,00943
1020,00;-0,00964
1021,00;-0,00983
1022,00;-0,00998
1023,00;-0,01022
1024,00;-0,01039
1025,00;-0,01059
1026,00;-0,01074
1027,00;-0,01099
1028,00;-0,01129
1029,00;-0,01143
1030,00;-0,01155
1031,00;-0,01158
1032,00;-0,01164
1033,00;-0,01192
1034,00;-0,01186
1035,00;-0,01178
1036,00;-0,01180
1037,00;-0,01187
1038,00;-0,01187
1039,00;-0,01163
1040,00;-0,01134
1041,00;-0,01122
1042,00;-0,01111
1043,00;-0,01100
1044,00;-0,01065
1045,00;-0,01048
1046,00;-0,01025
1047,00;-0,01009
1048,00;-0,00978
1049,00;-0,00960
1050,00;-0,00966
1051,00;-0,00938
1052,00;-0,00887
1053,00;-0,00890
1054,00;-0,00896
1055,00;-0,00833
1056,00;-0,00861
1057,00;-0,00868
1058,00;-0,00836
1059,00;-0,00841
1060,00;-0,00876
1061,00;-0,00871
1062,00;-0,00854
1063,00;-0,00891
1064,00;-0,00903
1065,00;-0,00897
1066,00;-0,00932
1067,00;-0,00948
1068,00;-0,00963
1069,00;-0,00995
1070,00;-0,00996
1071,00;-0,01027
1072,00;-0,01051
1073,00;-0,01054
1074,00;-0,01082
1075,00;-0,01071
1076,00;-0,01118
1077,00;-0,01086
1078,00;-0,01118
1079,00;-0,01123
1080,00;-0,01120
1081,00;-0,01123
1082,00;-0,01088
1083,00;-0,01108
1084,00;-0,01123
1085,00;-0,01083
1086,00;-0,01093
1087,00;-0,01062
1088,00;-0,01038
1089,00;-0,01033
1090,00;-0,01015
1091,00;-0,00998
1092,00;-0,00984
1093,00;-0,00966
1094,00;-0,00958
1095,00;-0,00922
1096,00;-0,00880
1097,00;-0,00883
1098,00;-0,00856
1099,00;-0,00854
1100,00;-0,00850