File: films/spectrometro uv1000/20230310_Sample-05.txt
"File_221110_220917 - RawData"
"Wavelength nm.","Abs."
300.00,0.08766
301.00,0.09370
302.00,0.07603
303.00,0.07350
304.00,0.05615
305.00,0.05368
306.00,0.04930
307.00,0.04553
308.00,0.04042
309.00,0.03363
310.00,0.03333
311.00,0.02693
312.00,0.01868
313.00,0.01332
314.00,0.01396
315.00,0.01373
316.00,0.01079
317.00,0.00468
318.00,0.00066
319.00,0.00002
320.00,0.00136
321.00,-0.00249
322.00,-0.00708
323.00,-0.01096
324.00,-0.00977
325.00,-0.00845
326.00,-0.00975
327.00,-0.01411
328.00,-0.01704
329.00,-0.01608
330.00,-0.01405
331.00,-0.01453
332.00,-0.01735
333.00,-0.02066
334.00,-0.02116
335.00,-0.01915
336.00,-0.01735
337.00,-0.01877
338.00,-0.02225
339.00,-0.02431
340.00,-0.02484
341.00,-0.02110
342.00,-0.01959
343.00,-0.02142
344.00,-0.02472
345.00,-0.02608
346.00,-0.02473
347.00,-0.02151
348.00,-0.02036
349.00,-0.02289
350.00,-0.02611
351.00,-0.02759
352.00,-0.02556
353.00,-0.02238
354.00,-0.02126
355.00,-0.02335
356.00,-0.02637
357.00,-0.02774
358.00,-0.02664
359.00,-0.02377
360.00,-0.02155
361.00,-0.02228
362.00,-0.02525
363.00,-0.02768
364.00,-0.02779
365.00,-0.02563
366.00,-0.02274
367.00,-0.02153
368.00,-0.02307
369.00,-0.02573
370.00,-0.02791
371.00,-0.02731
372.00,-0.02437
373.00,-0.02182
374.00,-0.02132
375.00,-0.02299
376.00,-0.02583
377.00,-0.02762
378.00,-0.02657
379.00,-0.02393
380.00,-0.02147
381.00,-0.02077
382.00,-0.02226
383.00,-0.02484
384.00,-0.02724
385.00,-0.02708
386.00,-0.02512
387.00,-0.02240
388.00,-0.02078
389.00,-0.02133
390.00,-0.02330
391.00,-0.02605
392.00,-0.02753
393.00,-0.02679
394.00,-0.02440
395.00,-0.02180
396.00,-0.02049
397.00,-0.02127
398.00,-0.02359
399.00,-0.02605
400.00,-0.02730
401.00,-0.02650
402.00,-0.02405
403.00,-0.02145
404.00,-0.02011
405.00,-0.02089
406.00,-0.02319
407.00,-0.02553
408.00,-0.02715
409.00,-0.02661
410.00,-0.02457
411.00,-0.02202
412.00,-0.02005
413.00,-0.01985
414.00,-0.02144
415.00,-0.02376
416.00,-0.02600
417.00,-0.02681
418.00,-0.02592
419.00,-0.02380
420.00,-0.02118
421.00,-0.01955
422.00,-0.01965
423.00,-0.02132
424.00,-0.02371
425.00,-0.02583
426.00,-0.02652
427.00,-0.02551
428.00,-0.02348
429.00,-0.02090
430.00,-0.01926
431.00,-0.01901
432.00,-0.02029
433.00,-0.02257
434.00,-0.02472
435.00,-0.02611
436.00,-0.02605
437.00,-0.02414
438.00,-0.02197
439.00,-0.01987
440.00,-0.01863
441.00,-0.01872
442.00,-0.01997
443.00,-0.02213
444.00,-0.02431
445.00,-0.02574
446.00,-0.02573
447.00,-0.02419
448.00,-0.02205
449.00,-0.01971
450.00,-0.01862
451.00,-0.01849
452.00,-0.01967
453.00,-0.02185
454.00,-0.02402
455.00,-0.02542
456.00,-0.02568
457.00,-0.02475
458.00,-0.02290
459.00,-0.02071
460.00,-0.01888
461.00,-0.01796
462.00,-0.01825
463.00,-0.01965
464.00,-0.02159
465.00,-0.02371
466.00,-0.02504
467.00,-0.02548
468.00,-0.02470
469.00,-0.02301
470.00,-0.02072
471.00,-0.01871
472.00,-0.01764
473.00,-0.01775
474.00,-0.01865
475.00,-0.02072
476.00,-0.02277
477.00,-0.02451
478.00,-0.02518
479.00,-0.02484
480.00,-0.02345
481.00,-0.02164
482.00,-0.01962
483.00,-0.01799
484.00,-0.01711
485.00,-0.01735
486.00,-0.01875
487.00,-0.02046
488.00,-0.02229
489.00,-0.02370
490.00,-0.02486
491.00,-0.02472
492.00,-0.02373
493.00,-0.02220
494.00,-0.02019
495.00,-0.01807
496.00,-0.01695
497.00,-0.01666
498.00,-0.01732
499.00,-0.01889
500.00,-0.02086
501.00,-0.02281
502.00,-0.02414
503.00,-0.02477
504.00,-0.02443
505.00,-0.02316
506.00,-0.02155
507.00,-0.01959
508.00,-0.01787
509.00,-0.01666
510.00,-0.01640
511.00,-0.01692
512.00,-0.01826
513.00,-0.01988
514.00,-0.02168
515.00,-0.02321
516.00,-0.02422
517.00,-0.02434
518.00,-0.02376
519.00,-0.02240
520.00,-0.02049
521.00,-0.01857
522.00,-0.01729
523.00,-0.01605
524.00,-0.01610
525.00,-0.01672
526.00,-0.01790
527.00,-0.01964
528.00,-0.02139
529.00,-0.02289
530.00,-0.02382
531.00,-0.02412
532.00,-0.02370
533.00,-0.02246
534.00,-0.02069
535.00,-0.01892
536.00,-0.01752
537.00,-0.01628
538.00,-0.01561
539.00,-0.01578
540.00,-0.01648
541.00,-0.01773
542.00,-0.01936
543.00,-0.02106
544.00,-0.02274
545.00,-0.02350
546.00,-0.02373
547.00,-0.02347
548.00,-0.02231
549.00,-0.02089
550.00,-0.01912
551.00,-0.01741
552.00,-0.01619
553.00,-0.01537
554.00,-0.01521
555.00,-0.01570
556.00,-0.01671
557.00,-0.01799
558.00,-0.01939
559.00,-0.02097
560.00,-0.02206
561.00,-0.02310
562.00,-0.02338
563.00,-0.02307
564.00,-0.02208
565.00,-0.02086
566.00,-0.01933
567.00,-0.01778
568.00,-0.01639
569.00,-0.01526
570.00,-0.01479
571.00,-0.01498
572.00,-0.01541
573.00,-0.01657
574.00,-0.01802
575.00,-0.01949
576.00,-0.02103
577.00,-0.02200
578.00,-0.02277
579.00,-0.02301
580.00,-0.02269
581.00,-0.02196
582.00,-0.02061
583.00,-0.01909
584.00,-0.01761
585.00,-0.01625
586.00,-0.01511
587.00,-0.01465
588.00,-0.01427
589.00,-0.01457
590.00,-0.01521
591.00,-0.01639
592.00,-0.01779
593.00,-0.01910
594.00,-0.02040
595.00,-0.02142
596.00,-0.02225
597.00,-0.02264
598.00,-0.02235
599.00,-0.02153
600.00,-0.02043
601.00,-0.01917
602.00,-0.01776
603.00,-0.01653
604.00,-0.01540
605.00,-0.01443
606.00,-0.01387
607.00,-0.01393
608.00,-0.01448
609.00,-0.01538
610.00,-0.01619
611.00,-0.01743
612.00,-0.01877
613.00,-0.01993
614.00,-0.02116
615.00,-0.02180
616.00,-0.02211
617.00,-0.02209
618.00,-0.02159
619.00,-0.02077
620.00,-0.01968
621.00,-0.01840
622.00,-0.01686
623.00,-0.01564
624.00,-0.01466
625.00,-0.01396
626.00,-0.01357
627.00,-0.01361
628.00,-0.01387
629.00,-0.01472
630.00,-0.01572
631.00,-0.01686
632.00,-0.01807
633.00,-0.01926
634.00,-0.02011
635.00,-0.02101
636.00,-0.02153
637.00,-0.02173
638.00,-0.02165
639.00,-0.02098
640.00,-0.02005
641.00,-0.01906
642.00,-0.01781
643.00,-0.01660
644.00,-0.01538
645.00,-0.01424
646.00,-0.01343
647.00,-0.01295
648.00,-0.01289
649.00,-0.01323
650.00,-0.01373
651.00,-0.01439
652.00,-0.01569
653.00,-0.01672
654.00,-0.01785
655.00,-0.01909
656.00,-0.01993
657.00,-0.02066
658.00,-0.02110
659.00,-0.02132
660.00,-0.02107
661.00,-0.02069
662.00,-0.01987
663.00,-0.01878
664.00,-0.01782
665.00,-0.01654
666.00,-0.01549
667.00,-0.01439
668.00,-0.01349
669.00,-0.01292
670.00,-0.01262
671.00,-0.01257
672.00,-0.01282
673.00,-0.01334
674.00,-0.01425
675.00,-0.01514
676.00,-0.01598
677.00,-0.01711
678.00,-0.01831
679.00,-0.01915
680.00,-0.01996
681.00,-0.02058
682.00,-0.02097
683.00,-0.02077
684.00,-0.02061
685.00,-0.02013
686.00,-0.01935
687.00,-0.01845
688.00,-0.01753
689.00,-0.01648
690.00,-0.01517
691.00,-0.01410
692.00,-0.01335
693.00,-0.01262
694.00,-0.01221
695.00,-0.01204
696.00,-0.01201
697.00,-0.01241
698.00,-0.01294
699.00,-0.01364
700.00,-0.01445
701.00,-0.01547
702.00,-0.01648
703.00,-0.01761
704.00,-0.01846
705.00,-0.01933
706.00,-0.01993
707.00,-0.02025
708.00,-0.02034
709.00,-0.02017
710.00,-0.01996
711.00,-0.01935
712.00,-0.01866
713.00,-0.01782
714.00,-0.01665
715.00,-0.01564
716.00,-0.01456
717.00,-0.01364
718.00,-0.01283
719.00,-0.01221
720.00,-0.01169
721.00,-0.01146
722.00,-0.01143
723.00,-0.01164
724.00,-0.01212
725.00,-0.01279
726.00,-0.01361
727.00,-0.01434
728.00,-0.01521
729.00,-0.01614
730.00,-0.01704
731.00,-0.01782
732.00,-0.01852
733.00,-0.01912
734.00,-0.01942
735.00,-0.01973
736.00,-0.01961
737.00,-0.01939
738.00,-0.01909
739.00,-0.01851
740.00,-0.01761
741.00,-0.01685
742.00,-0.01588
743.00,-0.01506
744.00,-0.01411
745.00,-0.01335
746.00,-0.01259
747.00,-0.01192
748.00,-0.01149
749.00,-0.01111
750.00,-0.01091
751.00,-0.01105
752.00,-0.01132
753.00,-0.01175
754.00,-0.01222
755.00,-0.01282
756.00,-0.01358
757.00,-0.01454
758.00,-0.01527
759.00,-0.01619
760.00,-0.01711
761.00,-0.01781
762.00,-0.01849
763.00,-0.01892
764.00,-0.01910
765.00,-0.01942
766.00,-0.01917
767.00,-0.01884
768.00,-0.01831
769.00,-0.01796
770.00,-0.01727
771.00,-0.01657
772.00,-0.01569
773.00,-0.01486
774.00,-0.01392
775.00,-0.01309
776.00,-0.01225
777.00,-0.01167
778.00,-0.01111
779.00,-0.01068
780.00,-0.01038
781.00,-0.01028
782.00,-0.01044
783.00,-0.01060
784.00,-0.01096
785.00,-0.01151
786.00,-0.01218
787.00,-0.01283
788.00,-0.01357
789.00,-0.01425
790.00,-0.01514
791.00,-0.01578
792.00,-0.01649
793.00,-0.01721
794.00,-0.01776
795.00,-0.01828
796.00,-0.01839
797.00,-0.01852
798.00,-0.01865
799.00,-0.01854
800.00,-0.01796
801.00,-0.01782
802.00,-0.01729
803.00,-0.01636
804.00,-0.01575
805.00,-0.01498
806.00,-0.01413
807.00,-0.01328
808.00,-0.01263
809.00,-0.01184
810.00,-0.01108
811.00,-0.01059
812.00,-0.01013
813.00,-0.00992
814.00,-0.00974
815.00,-0.00977
816.00,-0.00995
817.00,-0.01016
818.00,-0.01051
819.00,-0.01089
820.00,-0.01151
821.00,-0.01210
822.00,-0.01276
823.00,-0.01332
824.00,-0.01422
825.00,-0.01494
826.00,-0.01549
827.00,-0.01624
828.00,-0.01678
829.00,-0.01730
830.00,-0.01753
831.00,-0.01790
832.00,-0.01793
833.00,-0.01790
834.00,-0.01781
835.00,-0.01743
836.00,-0.01717
837.00,-0.01666
838.00,-0.01616
839.00,-0.01555
840.00,-0.01488
841.00,-0.01419
842.00,-0.01347
843.00,-0.01274
844.00,-0.01204
845.00,-0.01147
846.00,-0.01096
847.00,-0.01036
848.00,-0.01004
849.00,-0.00969
850.00,-0.00949
851.00,-0.00926
852.00,-0.00914
853.00,-0.00935
854.00,-0.00954
855.00,-0.00984
856.00,-0.01038
857.00,-0.01091
858.00,-0.01134
859.00,-0.01190
860.00,-0.01263
861.00,-0.01332
862.00,-0.01399
863.00,-0.01460
864.00,-0.01506
865.00,-0.01553
866.00,-0.01622
867.00,-0.01649
868.00,-0.01685
869.00,-0.01712
870.00,-0.01729
871.00,-0.01732
872.00,-0.01733
873.00,-0.01718
874.00,-0.01683
875.00,-0.01651
876.00,-0.01617
877.00,-0.01553
878.00,-0.01500
879.00,-0.01445
880.00,-0.01389
881.00,-0.01305
882.00,-0.01233
883.00,-0.01189
884.00,-0.01114
885.00,-0.01067
886.00,-0.00989
887.00,-0.00954
888.00,-0.00917
889.00,-0.00905
890.00,-0.00891
891.00,-0.00870
892.00,-0.00842
893.00,-0.00865
894.00,-0.00887
895.00,-0.00926
896.00,-0.00954
897.00,-0.00980
898.00,-0.01022
899.00,-0.01089
900.00,-0.01143
901.00,-0.01181
902.00,-0.01268
903.00,-0.01334
904.00,-0.01373
905.00,-0.01431
906.00,-0.01492
907.00,-0.01530
908.00,-0.01588
909.00,-0.01599
910.00,-0.01654
911.00,-0.01663
912.00,-0.01714
913.00,-0.01695
914.00,-0.01677
915.00,-0.01689
916.00,-0.01637
917.00,-0.01622
918.00,-0.01596
919.00,-0.01515
920.00,-0.01488
921.00,-0.01428
922.00,-0.01382
923.00,-0.01314
924.00,-0.01256
925.00,-0.01192
926.00,-0.01157
927.00,-0.01079
928.00,-0.01048
929.00,-0.00984
930.00,-0.00957
931.00,-0.00896
932.00,-0.00882
933.00,-0.00833
934.00,-0.00815
935.00,-0.00822
936.00,-0.00803
937.00,-0.00821
938.00,-0.00821
939.00,-0.00854
940.00,-0.00867
941.00,-0.00914
942.00,-0.00954
943.00,-0.00981
944.00,-0.01050
945.00,-0.01093
946.00,-0.01132
947.00,-0.01199
948.00,-0.01239
949.00,-0.01305
950.00,-0.01361
951.00,-0.01404
952.00,-0.01450
953.00,-0.01483
954.00,-0.01540
955.00,-0.01570
956.00,-0.01595
957.00,-0.01610
958.00,-0.01624
959.00,-0.01637
960.00,-0.01628
961.00,-0.01616
962.00,-0.01607
963.00,-0.01585
964.00,-0.01561
965.00,-0.01537
966.00,-0.01492
967.00,-0.01439
968.00,-0.01401
969.00,-0.01341
970.00,-0.01291
971.00,-0.01233
972.00,-0.01178
973.00,-0.01134
974.00,-0.01086
975.00,-0.01042
976.00,-0.00995
977.00,-0.00928
978.00,-0.00899
979.00,-0.00862
980.00,-0.00845
981.00,-0.00816
982.00,-0.00789
983.00,-0.00761
984.00,-0.00746
985.00,-0.00742
986.00,-0.00758
987.00,-0.00772
988.00,-0.00793
989.00,-0.00821
990.00,-0.00835
991.00,-0.00865
992.00,-0.00903
993.00,-0.00952
994.00,-0.00987
995.00,-0.01035
996.00,-0.01077
997.00,-0.01129
998.00,-0.01183
999.00,-0.01237
1000.00,-0.01283
1001.00,-0.01321
1002.00,-0.01376
1003.00,-0.01414
1004.00,-0.01447
1005.00,-0.01472
1006.00,-0.01492
1007.00,-0.01541
1008.00,-0.01553
1009.00,-0.01550
1010.00,-0.01563
1011.00,-0.01584
1012.00,-0.01578
1013.00,-0.01558
1014.00,-0.01541
1015.00,-0.01535
1016.00,-0.01509
1017.00,-0.01482
1018.00,-0.01437
1019.00,-0.01390
1020.00,-0.01363
1021.00,-0.01318
1022.00,-0.01274
1023.00,-0.01222
1024.00,-0.01169
1025.00,-0.01128
1026.00,-0.01070
1027.00,-0.01022
1028.00,-0.00987
1029.00,-0.00945
1030.00,-0.00900
1031.00,-0.00847
1032.00,-0.00813
1033.00,-0.00795
1034.00,-0.00766
1035.00,-0.00732
1036.00,-0.00714
1037.00,-0.00706
1038.00,-0.00700
1039.00,-0.00688
1040.00,-0.00679
1041.00,-0.00690
1042.00,-0.00720
1043.00,-0.00728
1044.00,-0.00740
1045.00,-0.00769
1046.00,-0.00800
1047.00,-0.00838
1048.00,-0.00850
1049.00,-0.00902
1050.00,-0.00961
1051.00,-0.01003
1052.00,-0.01007
1053.00,-0.01073
1054.00,-0.01140
1055.00,-0.01137
1056.00,-0.01201
1057.00,-0.01251
1058.00,-0.01262
1059.00,-0.01302
1060.00,-0.01366
1061.00,-0.01389
1062.00,-0.01393
1063.00,-0.01451
1064.00,-0.01465
1065.00,-0.01469
1066.00,-0.01497
1067.00,-0.01494
1068.00,-0.01497
1069.00,-0.01509
1070.00,-0.01482
1071.00,-0.01479
1072.00,-0.01477
1073.00,-0.01448
1074.00,-0.01434
1075.00,-0.01393
1076.00,-0.01389
1077.00,-0.01320
1078.00,-0.01317
1079.00,-0.01273
1080.00,-0.01218
1081.00,-0.01196
1082.00,-0.01106
1083.00,-0.01083
1084.00,-0.01028
1085.00,-0.00923
1086.00,-0.00977
1087.00,-0.00906
1088.00,-0.00865
1089.00,-0.00842
1090.00,-0.00813
1091.00,-0.00766
1092.00,-0.00740
1093.00,-0.00691
1094.00,-0.00700
1095.00,-0.00658
1096.00,-0.00626
1097.00,-0.00636
1098.00,-0.00615
1099.00,-0.00623
1100.00,-0.00620