File: films/spectrometro uv1000/20230310_Sample-04.txt
"File_221110_220658 - RawData"
"Wavelength nm.","Abs."
300.00,-0.48444
301.00,-0.37218
302.00,-0.28371
303.00,-0.20660
304.00,-0.16606
305.00,-0.12358
306.00,-0.12840
307.00,-0.09920
308.00,-0.08078
309.00,-0.06889
310.00,-0.05142
311.00,-0.04156
312.00,-0.03937
313.00,-0.03496
314.00,-0.02817
315.00,-0.02579
316.00,-0.02705
317.00,-0.02486
318.00,-0.02042
319.00,-0.01859
320.00,-0.02277
321.00,-0.02367
322.00,-0.02124
323.00,-0.02097
324.00,-0.02301
325.00,-0.02408
326.00,-0.02174
327.00,-0.02022
328.00,-0.02254
329.00,-0.02495
330.00,-0.02423
331.00,-0.02190
332.00,-0.02180
333.00,-0.02432
334.00,-0.02539
335.00,-0.02284
336.00,-0.02139
337.00,-0.02339
338.00,-0.02597
339.00,-0.02625
340.00,-0.02490
341.00,-0.02252
342.00,-0.02441
343.00,-0.02625
344.00,-0.02589
345.00,-0.02321
346.00,-0.02260
347.00,-0.02481
348.00,-0.02658
349.00,-0.02602
350.00,-0.02318
351.00,-0.02257
352.00,-0.02502
353.00,-0.02690
354.00,-0.02586
355.00,-0.02332
356.00,-0.02223
357.00,-0.02414
358.00,-0.02663
359.00,-0.02663
360.00,-0.02448
361.00,-0.02225
362.00,-0.02293
363.00,-0.02534
364.00,-0.02704
365.00,-0.02591
366.00,-0.02304
367.00,-0.02196
368.00,-0.02333
369.00,-0.02567
370.00,-0.02660
371.00,-0.02478
372.00,-0.02216
373.00,-0.02185
374.00,-0.02402
375.00,-0.02611
376.00,-0.02606
377.00,-0.02388
378.00,-0.02145
379.00,-0.02161
380.00,-0.02359
381.00,-0.02577
382.00,-0.02603
383.00,-0.02361
384.00,-0.02168
385.00,-0.02127
386.00,-0.02332
387.00,-0.02551
388.00,-0.02603
389.00,-0.02464
390.00,-0.02222
391.00,-0.02101
392.00,-0.02190
393.00,-0.02390
394.00,-0.02567
395.00,-0.02548
396.00,-0.02347
397.00,-0.02138
398.00,-0.02077
399.00,-0.02226
400.00,-0.02458
401.00,-0.02583
402.00,-0.02480
403.00,-0.02225
404.00,-0.02054
405.00,-0.02084
406.00,-0.02277
407.00,-0.02483
408.00,-0.02553
409.00,-0.02454
410.00,-0.02228
411.00,-0.02049
412.00,-0.02045
413.00,-0.02190
414.00,-0.02406
415.00,-0.02516
416.00,-0.02463
417.00,-0.02274
418.00,-0.02068
419.00,-0.01985
420.00,-0.02080
421.00,-0.02289
422.00,-0.02484
423.00,-0.02492
424.00,-0.02356
425.00,-0.02133
426.00,-0.01970
427.00,-0.01984
428.00,-0.02159
429.00,-0.02371
430.00,-0.02484
431.00,-0.02441
432.00,-0.02251
433.00,-0.02065
434.00,-0.01938
435.00,-0.01959
436.00,-0.02115
437.00,-0.02328
438.00,-0.02438
439.00,-0.02438
440.00,-0.02296
441.00,-0.02090
442.00,-0.01923
443.00,-0.01906
444.00,-0.02014
445.00,-0.02222
446.00,-0.02393
447.00,-0.02437
448.00,-0.02350
449.00,-0.02162
450.00,-0.01987
451.00,-0.01884
452.00,-0.01924
453.00,-0.02098
454.00,-0.02281
455.00,-0.02408
456.00,-0.02408
457.00,-0.02296
458.00,-0.02103
459.00,-0.01932
460.00,-0.01845
461.00,-0.01881
462.00,-0.02032
463.00,-0.02223
464.00,-0.02351
465.00,-0.02399
466.00,-0.02296
467.00,-0.02133
468.00,-0.01956
469.00,-0.01830
470.00,-0.01819
471.00,-0.01932
472.00,-0.02107
473.00,-0.02290
474.00,-0.02370
475.00,-0.02350
476.00,-0.02196
477.00,-0.02016
478.00,-0.01857
479.00,-0.01785
480.00,-0.01828
481.00,-0.01950
482.00,-0.02139
483.00,-0.02274
484.00,-0.02342
485.00,-0.02306
486.00,-0.02164
487.00,-0.01997
488.00,-0.01826
489.00,-0.01736
490.00,-0.01759
491.00,-0.01848
492.00,-0.02011
493.00,-0.02199
494.00,-0.02316
495.00,-0.02315
496.00,-0.02234
497.00,-0.02068
498.00,-0.01891
499.00,-0.01746
500.00,-0.01698
501.00,-0.01768
502.00,-0.01906
503.00,-0.02095
504.00,-0.02246
505.00,-0.02319
506.00,-0.02307
507.00,-0.02199
508.00,-0.02040
509.00,-0.01859
510.00,-0.01730
511.00,-0.01685
512.00,-0.01724
513.00,-0.01840
514.00,-0.01991
515.00,-0.02153
516.00,-0.02251
517.00,-0.02281
518.00,-0.02222
519.00,-0.02097
520.00,-0.01918
521.00,-0.01744
522.00,-0.01665
523.00,-0.01637
524.00,-0.01717
525.00,-0.01860
526.00,-0.02039
527.00,-0.02168
528.00,-0.02242
529.00,-0.02252
530.00,-0.02191
531.00,-0.02049
532.00,-0.01881
533.00,-0.01724
534.00,-0.01624
535.00,-0.01605
536.00,-0.01666
537.00,-0.01775
538.00,-0.01920
539.00,-0.02081
540.00,-0.02177
541.00,-0.02234
542.00,-0.02213
543.00,-0.02113
544.00,-0.01962
545.00,-0.01802
546.00,-0.01662
547.00,-0.01572
548.00,-0.01564
549.00,-0.01620
550.00,-0.01740
551.00,-0.01901
552.00,-0.02060
553.00,-0.02164
554.00,-0.02216
555.00,-0.02191
556.00,-0.02103
557.00,-0.01961
558.00,-0.01807
559.00,-0.01662
560.00,-0.01543
561.00,-0.01540
562.00,-0.01556
563.00,-0.01640
564.00,-0.01775
565.00,-0.01924
566.00,-0.02043
567.00,-0.02147
568.00,-0.02185
569.00,-0.02139
570.00,-0.02055
571.00,-0.01933
572.00,-0.01764
573.00,-0.01637
574.00,-0.01543
575.00,-0.01494
576.00,-0.01521
577.00,-0.01593
578.00,-0.01714
579.00,-0.01854
580.00,-0.01978
581.00,-0.02090
582.00,-0.02150
583.00,-0.02145
584.00,-0.02086
585.00,-0.01993
586.00,-0.01857
587.00,-0.01724
588.00,-0.01585
589.00,-0.01495
590.00,-0.01456
591.00,-0.01476
592.00,-0.01550
593.00,-0.01640
594.00,-0.01772
595.00,-0.01909
596.00,-0.02032
597.00,-0.02106
598.00,-0.02121
599.00,-0.02075
600.00,-0.01987
601.00,-0.01866
602.00,-0.01733
603.00,-0.01596
604.00,-0.01491
605.00,-0.01431
606.00,-0.01425
607.00,-0.01469
608.00,-0.01549
609.00,-0.01671
610.00,-0.01779
611.00,-0.01904
612.00,-0.02007
613.00,-0.02058
614.00,-0.02075
615.00,-0.02051
616.00,-0.01978
617.00,-0.01886
618.00,-0.01750
619.00,-0.01625
620.00,-0.01515
621.00,-0.01433
622.00,-0.01387
623.00,-0.01392
624.00,-0.01462
625.00,-0.01538
626.00,-0.01654
627.00,-0.01773
628.00,-0.01892
629.00,-0.01978
630.00,-0.02048
631.00,-0.02048
632.00,-0.02043
633.00,-0.01968
634.00,-0.01866
635.00,-0.01764
636.00,-0.01640
637.00,-0.01524
638.00,-0.01430
639.00,-0.01370
640.00,-0.01352
641.00,-0.01393
642.00,-0.01457
643.00,-0.01546
644.00,-0.01660
645.00,-0.01772
646.00,-0.01874
647.00,-0.01956
648.00,-0.02010
649.00,-0.02036
650.00,-0.02000
651.00,-0.01941
652.00,-0.01862
653.00,-0.01741
654.00,-0.01631
655.00,-0.01517
656.00,-0.01433
657.00,-0.01361
658.00,-0.01331
659.00,-0.01328
660.00,-0.01364
661.00,-0.01439
662.00,-0.01526
663.00,-0.01616
664.00,-0.01727
665.00,-0.01833
666.00,-0.01910
667.00,-0.01962
668.00,-0.01994
669.00,-0.01990
670.00,-0.01930
671.00,-0.01845
672.00,-0.01738
673.00,-0.01643
674.00,-0.01544
675.00,-0.01462
676.00,-0.01358
677.00,-0.01300
678.00,-0.01277
679.00,-0.01291
680.00,-0.01329
681.00,-0.01398
682.00,-0.01488
683.00,-0.01570
684.00,-0.01675
685.00,-0.01775
686.00,-0.01859
687.00,-0.01935
688.00,-0.01965
689.00,-0.01968
690.00,-0.01929
691.00,-0.01860
692.00,-0.01782
693.00,-0.01675
694.00,-0.01564
695.00,-0.01462
696.00,-0.01373
697.00,-0.01305
698.00,-0.01256
699.00,-0.01244
700.00,-0.01245
701.00,-0.01288
702.00,-0.01346
703.00,-0.01434
704.00,-0.01524
705.00,-0.01630
706.00,-0.01726
707.00,-0.01808
708.00,-0.01865
709.00,-0.01909
710.00,-0.01927
711.00,-0.01918
712.00,-0.01883
713.00,-0.01807
714.00,-0.01724
715.00,-0.01630
716.00,-0.01530
717.00,-0.01436
718.00,-0.01349
719.00,-0.01300
720.00,-0.01233
721.00,-0.01212
722.00,-0.01213
723.00,-0.01245
724.00,-0.01289
725.00,-0.01366
726.00,-0.01448
727.00,-0.01537
728.00,-0.01616
729.00,-0.01698
730.00,-0.01779
731.00,-0.01833
732.00,-0.01862
733.00,-0.01877
734.00,-0.01869
735.00,-0.01848
736.00,-0.01794
737.00,-0.01717
738.00,-0.01637
739.00,-0.01541
740.00,-0.01437
741.00,-0.01364
742.00,-0.01288
743.00,-0.01228
744.00,-0.01189
745.00,-0.01176
746.00,-0.01192
747.00,-0.01213
748.00,-0.01248
749.00,-0.01314
750.00,-0.01382
751.00,-0.01482
752.00,-0.01564
753.00,-0.01649
754.00,-0.01711
755.00,-0.01765
756.00,-0.01813
757.00,-0.01846
758.00,-0.01846
759.00,-0.01826
760.00,-0.01791
761.00,-0.01744
762.00,-0.01669
763.00,-0.01587
764.00,-0.01494
765.00,-0.01425
766.00,-0.01329
767.00,-0.01256
768.00,-0.01184
769.00,-0.01154
770.00,-0.01134
771.00,-0.01143
772.00,-0.01152
773.00,-0.01189
774.00,-0.01222
775.00,-0.01282
776.00,-0.01353
777.00,-0.01431
778.00,-0.01508
779.00,-0.01587
780.00,-0.01657
781.00,-0.01718
782.00,-0.01768
783.00,-0.01790
784.00,-0.01805
785.00,-0.01799
786.00,-0.01773
787.00,-0.01726
788.00,-0.01659
789.00,-0.01598
790.00,-0.01520
791.00,-0.01451
792.00,-0.01373
793.00,-0.01292
794.00,-0.01230
795.00,-0.01190
796.00,-0.01128
797.00,-0.01094
798.00,-0.01103
799.00,-0.01112
800.00,-0.01112
801.00,-0.01172
802.00,-0.01224
803.00,-0.01259
804.00,-0.01341
805.00,-0.01414
806.00,-0.01489
807.00,-0.01563
808.00,-0.01636
809.00,-0.01689
810.00,-0.01724
811.00,-0.01744
812.00,-0.01753
813.00,-0.01750
814.00,-0.01733
815.00,-0.01706
816.00,-0.01649
817.00,-0.01591
818.00,-0.01523
819.00,-0.01466
820.00,-0.01389
821.00,-0.01324
822.00,-0.01254
823.00,-0.01173
824.00,-0.01143
825.00,-0.01093
826.00,-0.01059
827.00,-0.01051
828.00,-0.01053
829.00,-0.01079
830.00,-0.01089
831.00,-0.01152
832.00,-0.01193
833.00,-0.01260
834.00,-0.01332
835.00,-0.01389
836.00,-0.01450
837.00,-0.01517
838.00,-0.01587
839.00,-0.01637
840.00,-0.01675
841.00,-0.01706
842.00,-0.01726
843.00,-0.01723
844.00,-0.01703
845.00,-0.01688
846.00,-0.01653
847.00,-0.01604
848.00,-0.01552
849.00,-0.01479
850.00,-0.01418
851.00,-0.01334
852.00,-0.01260
853.00,-0.01201
854.00,-0.01154
855.00,-0.01094
856.00,-0.01067
857.00,-0.01042
858.00,-0.01022
859.00,-0.01010
860.00,-0.01028
861.00,-0.01050
862.00,-0.01079
863.00,-0.01122
864.00,-0.01163
865.00,-0.01208
866.00,-0.01276
867.00,-0.01338
868.00,-0.01398
869.00,-0.01443
870.00,-0.01512
871.00,-0.01559
872.00,-0.01599
873.00,-0.01640
874.00,-0.01653
875.00,-0.01674
876.00,-0.01678
877.00,-0.01663
878.00,-0.01634
879.00,-0.01595
880.00,-0.01572
881.00,-0.01505
882.00,-0.01440
883.00,-0.01398
884.00,-0.01326
885.00,-0.01276
886.00,-0.01187
887.00,-0.01144
888.00,-0.01102
889.00,-0.01070
890.00,-0.01042
891.00,-0.01003
892.00,-0.00977
893.00,-0.00972
894.00,-0.00981
895.00,-0.01013
896.00,-0.01027
897.00,-0.01047
898.00,-0.01079
899.00,-0.01152
900.00,-0.01207
901.00,-0.01241
902.00,-0.01317
903.00,-0.01381
904.00,-0.01418
905.00,-0.01466
906.00,-0.01523
907.00,-0.01552
908.00,-0.01601
909.00,-0.01599
910.00,-0.01640
911.00,-0.01630
912.00,-0.01651
913.00,-0.01619
914.00,-0.01578
915.00,-0.01578
916.00,-0.01505
917.00,-0.01465
918.00,-0.01421
919.00,-0.01331
920.00,-0.01289
921.00,-0.01231
922.00,-0.01190
923.00,-0.01118
924.00,-0.01077
925.00,-0.01028
926.00,-0.01007
927.00,-0.00948
928.00,-0.00957
929.00,-0.00928
930.00,-0.00952
931.00,-0.00935
932.00,-0.00955
933.00,-0.00964
934.00,-0.00989
935.00,-0.01053
936.00,-0.01080
937.00,-0.01143
938.00,-0.01183
939.00,-0.01248
940.00,-0.01285
941.00,-0.01361
942.00,-0.01398
943.00,-0.01445
944.00,-0.01500
945.00,-0.01526
946.00,-0.01544
947.00,-0.01584
948.00,-0.01576
949.00,-0.01598
950.00,-0.01595
951.00,-0.01585
952.00,-0.01555
953.00,-0.01529
954.00,-0.01514
955.00,-0.01474
956.00,-0.01421
957.00,-0.01378
958.00,-0.01320
959.00,-0.01271
960.00,-0.01208
961.00,-0.01164
962.00,-0.01117
963.00,-0.01073
964.00,-0.01030
965.00,-0.00998
966.00,-0.00969
967.00,-0.00934
968.00,-0.00925
969.00,-0.00903
970.00,-0.00905
971.00,-0.00897
972.00,-0.00903
973.00,-0.00940
974.00,-0.00966
975.00,-0.00998
976.00,-0.01039
977.00,-0.01054
978.00,-0.01103
979.00,-0.01154
980.00,-0.01221
981.00,-0.01260
982.00,-0.01297
983.00,-0.01331
984.00,-0.01372
985.00,-0.01401
986.00,-0.01445
987.00,-0.01485
988.00,-0.01514
989.00,-0.01540
990.00,-0.01534
991.00,-0.01550
992.00,-0.01544
993.00,-0.01537
994.00,-0.01520
995.00,-0.01503
996.00,-0.01483
997.00,-0.01443
998.00,-0.01410
999.00,-0.01379
1000.00,-0.01312
1001.00,-0.01277
1002.00,-0.01227
1003.00,-0.01176
1004.00,-0.01117
1005.00,-0.01071
1006.00,-0.01033
1007.00,-0.00999
1008.00,-0.00957
1009.00,-0.00925
1010.00,-0.00894
1011.00,-0.00883
1012.00,-0.00861
1013.00,-0.00845
1014.00,-0.00845
1015.00,-0.00854
1016.00,-0.00856
1017.00,-0.00876
1018.00,-0.00885
1019.00,-0.00908
1020.00,-0.00949
1021.00,-0.00984
1022.00,-0.01024
1023.00,-0.01071
1024.00,-0.01114
1025.00,-0.01155
1026.00,-0.01189
1027.00,-0.01237
1028.00,-0.01283
1029.00,-0.01332
1030.00,-0.01369
1031.00,-0.01401
1032.00,-0.01428
1033.00,-0.01468
1034.00,-0.01474
1035.00,-0.01482
1036.00,-0.01494
1037.00,-0.01508
1038.00,-0.01509
1039.00,-0.01477
1040.00,-0.01459
1041.00,-0.01445
1042.00,-0.01436
1043.00,-0.01398
1044.00,-0.01352
1045.00,-0.01309
1046.00,-0.01273
1047.00,-0.01241
1048.00,-0.01184
1049.00,-0.01135
1050.00,-0.01117
1051.00,-0.01057
1052.00,-0.00996
1053.00,-0.00978
1054.00,-0.00948
1055.00,-0.00880
1056.00,-0.00868
1057.00,-0.00853
1058.00,-0.00809
1059.00,-0.00792
1060.00,-0.00804
1061.00,-0.00789
1062.00,-0.00764
1063.00,-0.00798
1064.00,-0.00792
1065.00,-0.00803
1066.00,-0.00842
1067.00,-0.00858
1068.00,-0.00882
1069.00,-0.00920
1070.00,-0.00943
1071.00,-0.00992
1072.00,-0.01030
1073.00,-0.01062
1074.00,-0.01109
1075.00,-0.01122
1076.00,-0.01193
1077.00,-0.01193
1078.00,-0.01259
1079.00,-0.01292
1080.00,-0.01318
1081.00,-0.01363
1082.00,-0.01341
1083.00,-0.01381
1084.00,-0.01404
1085.00,-0.01404
1086.00,-0.01437
1087.00,-0.01404
1088.00,-0.01404
1089.00,-0.01408
1090.00,-0.01401
1091.00,-0.01379
1092.00,-0.01363
1093.00,-0.01334
1094.00,-0.01308
1095.00,-0.01274
1096.00,-0.01231
1097.00,-0.01218
1098.00,-0.01167
1099.00,-0.01143
1100.00,-0.01100