File: films/spectrometro uv1000/20230310_Sample-08.txt
"File_221110_222036 - RawData"
"Wavelength nm.";"Abs."
300,00;0,01990
301,00;0,02975
302,00;0,03169
303,00;0,02994
304,00;0,01537
305,00;0,01274
306,00;0,00267
307,00;0,01004
308,00;0,00807
309,00;0,00626
310,00;0,00369
311,00;0,00328
312,00;-0,00056
313,00;-0,00377
314,00;-0,00406
315,00;-0,00569
316,00;-0,00797
317,00;-0,00923
318,00;-0,00943
319,00;-0,01067
320,00;-0,01149
321,00;-0,01366
322,00;-0,01476
323,00;-0,01657
324,00;-0,01683
325,00;-0,01733
326,00;-0,01765
327,00;-0,01845
328,00;-0,01860
329,00;-0,01874
330,00;-0,01974
331,00;-0,02061
332,00;-0,02060
333,00;-0,02141
334,00;-0,02148
335,00;-0,02231
336,00;-0,02219
337,00;-0,02213
338,00;-0,02254
339,00;-0,02290
340,00;-0,02440
341,00;-0,02338
342,00;-0,02373
343,00;-0,02376
344,00;-0,02361
345,00;-0,02393
346,00;-0,02393
347,00;-0,02402
348,00;-0,02412
349,00;-0,02402
350,00;-0,02422
351,00;-0,02458
352,00;-0,02486
353,00;-0,02441
354,00;-0,02425
355,00;-0,02446
356,00;-0,02420
357,00;-0,02422
358,00;-0,02438
359,00;-0,02434
360,00;-0,02422
361,00;-0,02451
362,00;-0,02431
363,00;-0,02422
364,00;-0,02452
365,00;-0,02449
366,00;-0,02406
367,00;-0,02414
368,00;-0,02402
369,00;-0,02394
370,00;-0,02420
371,00;-0,02394
372,00;-0,02391
373,00;-0,02383
374,00;-0,02388
375,00;-0,02348
376,00;-0,02365
377,00;-0,02364
378,00;-0,02345
379,00;-0,02348
380,00;-0,02357
381,00;-0,02341
382,00;-0,02353
383,00;-0,02325
384,00;-0,02321
385,00;-0,02335
386,00;-0,02362
387,00;-0,02354
388,00;-0,02350
389,00;-0,02345
390,00;-0,02332
391,00;-0,02347
392,00;-0,02341
393,00;-0,02330
394,00;-0,02312
395,00;-0,02319
396,00;-0,02347
397,00;-0,02324
398,00;-0,02322
399,00;-0,02324
400,00;-0,02315
401,00;-0,02304
402,00;-0,02315
403,00;-0,02315
404,00;-0,02289
405,00;-0,02286
406,00;-0,02304
407,00;-0,02284
408,00;-0,02278
409,00;-0,02299
410,00;-0,02277
411,00;-0,02269
412,00;-0,02272
413,00;-0,02274
414,00;-0,02255
415,00;-0,02245
416,00;-0,02266
417,00;-0,02269
418,00;-0,02248
419,00;-0,02257
420,00;-0,02249
421,00;-0,02245
422,00;-0,02257
423,00;-0,02248
424,00;-0,02237
425,00;-0,02226
426,00;-0,02232
427,00;-0,02220
428,00;-0,02223
429,00;-0,02222
430,00;-0,02232
431,00;-0,02213
432,00;-0,02196
433,00;-0,02209
434,00;-0,02214
435,00;-0,02199
436,00;-0,02197
437,00;-0,02200
438,00;-0,02190
439,00;-0,02184
440,00;-0,02174
441,00;-0,02180
442,00;-0,02168
443,00;-0,02171
444,00;-0,02155
445,00;-0,02164
446,00;-0,02167
447,00;-0,02155
448,00;-0,02159
449,00;-0,02153
450,00;-0,02171
451,00;-0,02171
452,00;-0,02158
453,00;-0,02147
454,00;-0,02121
455,00;-0,02158
456,00;-0,02147
457,00;-0,02136
458,00;-0,02115
459,00;-0,02122
460,00;-0,02139
461,00;-0,02144
462,00;-0,02110
463,00;-0,02106
464,00;-0,02115
465,00;-0,02124
466,00;-0,02113
467,00;-0,02089
468,00;-0,02090
469,00;-0,02110
470,00;-0,02109
471,00;-0,02075
472,00;-0,02078
473,00;-0,02078
474,00;-0,02084
475,00;-0,02087
476,00;-0,02072
477,00;-0,02081
478,00;-0,02077
479,00;-0,02071
480,00;-0,02072
481,00;-0,02063
482,00;-0,02061
483,00;-0,02060
484,00;-0,02052
485,00;-0,02057
486,00;-0,02057
487,00;-0,02060
488,00;-0,02051
489,00;-0,02040
490,00;-0,02052
491,00;-0,02051
492,00;-0,02043
493,00;-0,02049
494,00;-0,02032
495,00;-0,02017
496,00;-0,02037
497,00;-0,02031
498,00;-0,02023
499,00;-0,02005
500,00;-0,02010
501,00;-0,02010
502,00;-0,02020
503,00;-0,02022
504,00;-0,02017
505,00;-0,02020
506,00;-0,02023
507,00;-0,02020
508,00;-0,02019
509,00;-0,01991
510,00;-0,01993
511,00;-0,01991
512,00;-0,02000
513,00;-0,01997
514,00;-0,01991
515,00;-0,01987
516,00;-0,01981
517,00;-0,01968
518,00;-0,01987
519,00;-0,01994
520,00;-0,01985
521,00;-0,01965
522,00;-0,01973
523,00;-0,01953
524,00;-0,01968
525,00;-0,01970
526,00;-0,01956
527,00;-0,01961
528,00;-0,01945
529,00;-0,01947
530,00;-0,01941
531,00;-0,01939
532,00;-0,01962
533,00;-0,01959
534,00;-0,01944
535,00;-0,01926
536,00;-0,01926
537,00;-0,01929
538,00;-0,01926
539,00;-0,01926
540,00;-0,01912
541,00;-0,01900
542,00;-0,01888
543,00;-0,01903
544,00;-0,01947
545,00;-0,01932
546,00;-0,01909
547,00;-0,01886
548,00;-0,01863
549,00;-0,01874
550,00;-0,01888
551,00;-0,01894
552,00;-0,01891
553,00;-0,01884
554,00;-0,01875
555,00;-0,01889
556,00;-0,01889
557,00;-0,01886
558,00;-0,01877
559,00;-0,01884
560,00;-0,01857
561,00;-0,01866
562,00;-0,01860
563,00;-0,01869
564,00;-0,01869
565,00;-0,01851
566,00;-0,01852
567,00;-0,01845
568,00;-0,01851
569,00;-0,01854
570,00;-0,01862
571,00;-0,01857
572,00;-0,01833
573,00;-0,01837
574,00;-0,01839
575,00;-0,01837
576,00;-0,01842
577,00;-0,01843
578,00;-0,01837
579,00;-0,01828
580,00;-0,01825
581,00;-0,01834
582,00;-0,01836
583,00;-0,01839
584,00;-0,01833
585,00;-0,01813
586,00;-0,01799
587,00;-0,01805
588,00;-0,01801
589,00;-0,01805
590,00;-0,01808
591,00;-0,01817
592,00;-0,01810
593,00;-0,01770
594,00;-0,01765
595,00;-0,01775
596,00;-0,01793
597,00;-0,01788
598,00;-0,01791
599,00;-0,01761
600,00;-0,01768
601,00;-0,01764
602,00;-0,01767
603,00;-0,01784
604,00;-0,01784
605,00;-0,01775
606,00;-0,01778
607,00;-0,01772
608,00;-0,01759
609,00;-0,01773
610,00;-0,01761
611,00;-0,01762
612,00;-0,01762
613,00;-0,01761
614,00;-0,01758
615,00;-0,01753
616,00;-0,01741
617,00;-0,01755
618,00;-0,01743
619,00;-0,01746
620,00;-0,01758
621,00;-0,01755
622,00;-0,01750
623,00;-0,01746
624,00;-0,01743
625,00;-0,01732
626,00;-0,01735
627,00;-0,01733
628,00;-0,01712
629,00;-0,01720
630,00;-0,01717
631,00;-0,01730
632,00;-0,01738
633,00;-0,01723
634,00;-0,01720
635,00;-0,01720
636,00;-0,01717
637,00;-0,01688
638,00;-0,01706
639,00;-0,01709
640,00;-0,01709
641,00;-0,01720
642,00;-0,01715
643,00;-0,01720
644,00;-0,01694
645,00;-0,01700
646,00;-0,01678
647,00;-0,01675
648,00;-0,01671
649,00;-0,01685
650,00;-0,01688
651,00;-0,01694
652,00;-0,01698
653,00;-0,01672
654,00;-0,01663
655,00;-0,01671
656,00;-0,01662
657,00;-0,01662
658,00;-0,01671
659,00;-0,01668
660,00;-0,01669
661,00;-0,01677
662,00;-0,01669
663,00;-0,01654
664,00;-0,01648
665,00;-0,01653
666,00;-0,01649
667,00;-0,01653
668,00;-0,01663
669,00;-0,01669
670,00;-0,01651
671,00;-0,01642
672,00;-0,01627
673,00;-0,01627
674,00;-0,01662
675,00;-0,01665
676,00;-0,01642
677,00;-0,01642
678,00;-0,01643
679,00;-0,01639
680,00;-0,01633
681,00;-0,01624
682,00;-0,01634
683,00;-0,01613
684,00;-0,01634
685,00;-0,01633
686,00;-0,01634
687,00;-0,01640
688,00;-0,01633
689,00;-0,01628
690,00;-0,01608
691,00;-0,01593
692,00;-0,01593
693,00;-0,01599
694,00;-0,01608
695,00;-0,01617
696,00;-0,01614
697,00;-0,01620
698,00;-0,01601
699,00;-0,01584
700,00;-0,01579
701,00;-0,01573
702,00;-0,01561
703,00;-0,01576
704,00;-0,01585
705,00;-0,01596
706,00;-0,01610
707,00;-0,01599
708,00;-0,01578
709,00;-0,01579
710,00;-0,01581
711,00;-0,01569
712,00;-0,01569
713,00;-0,01559
714,00;-0,01575
715,00;-0,01581
716,00;-0,01582
717,00;-0,01588
718,00;-0,01584
719,00;-0,01555
720,00;-0,01563
721,00;-0,01546
722,00;-0,01530
723,00;-0,01537
724,00;-0,01541
725,00;-0,01556
726,00;-0,01573
727,00;-0,01561
728,00;-0,01569
729,00;-0,01569
730,00;-0,01552
731,00;-0,01544
732,00;-0,01538
733,00;-0,01518
734,00;-0,01530
735,00;-0,01523
736,00;-0,01520
737,00;-0,01529
738,00;-0,01540
739,00;-0,01544
740,00;-0,01534
741,00;-0,01537
742,00;-0,01523
743,00;-0,01514
744,00;-0,01509
745,00;-0,01506
746,00;-0,01517
747,00;-0,01508
748,00;-0,01511
749,00;-0,01514
750,00;-0,01517
751,00;-0,01524
752,00;-0,01521
753,00;-0,01521
754,00;-0,01506
755,00;-0,01497
756,00;-0,01483
757,00;-0,01492
758,00;-0,01476
759,00;-0,01491
760,00;-0,01491
761,00;-0,01501
762,00;-0,01501
763,00;-0,01498
764,00;-0,01500
765,00;-0,01515
766,00;-0,01494
767,00;-0,01465
768,00;-0,01462
769,00;-0,01483
770,00;-0,01482
771,00;-0,01492
772,00;-0,01486
773,00;-0,01482
774,00;-0,01482
775,00;-0,01479
776,00;-0,01457
777,00;-0,01465
778,00;-0,01457
779,00;-0,01462
780,00;-0,01459
781,00;-0,01463
782,00;-0,01474
783,00;-0,01457
784,00;-0,01462
785,00;-0,01465
786,00;-0,01459
787,00;-0,01447
788,00;-0,01447
789,00;-0,01443
790,00;-0,01442
791,00;-0,01442
792,00;-0,01433
793,00;-0,01430
794,00;-0,01442
795,00;-0,01454
796,00;-0,01442
797,00;-0,01440
798,00;-0,01436
799,00;-0,01440
800,00;-0,01414
801,00;-0,01434
802,00;-0,01440
803,00;-0,01407
804,00;-0,01428
805,00;-0,01425
806,00;-0,01437
807,00;-0,01425
808,00;-0,01439
809,00;-0,01437
810,00;-0,01430
811,00;-0,01427
812,00;-0,01414
813,00;-0,01407
814,00;-0,01408
815,00;-0,01407
816,00;-0,01395
817,00;-0,01396
818,00;-0,01389
819,00;-0,01410
820,00;-0,01410
821,00;-0,01408
822,00;-0,01418
823,00;-0,01401
824,00;-0,01424
825,00;-0,01411
826,00;-0,01401
827,00;-0,01390
828,00;-0,01395
829,00;-0,01389
830,00;-0,01385
831,00;-0,01381
832,00;-0,01375
833,00;-0,01375
834,00;-0,01379
835,00;-0,01375
836,00;-0,01390
837,00;-0,01382
838,00;-0,01393
839,00;-0,01390
840,00;-0,01390
841,00;-0,01390
842,00;-0,01385
843,00;-0,01372
844,00;-0,01360
845,00;-0,01372
846,00;-0,01381
847,00;-0,01364
848,00;-0,01379
849,00;-0,01381
850,00;-0,01392
851,00;-0,01373
852,00;-0,01363
853,00;-0,01367
854,00;-0,01366
855,00;-0,01357
856,00;-0,01361
857,00;-0,01363
858,00;-0,01358
859,00;-0,01350
860,00;-0,01347
861,00;-0,01349
862,00;-0,01349
863,00;-0,01358
864,00;-0,01360
865,00;-0,01340
866,00;-0,01367
867,00;-0,01357
868,00;-0,01352
869,00;-0,01337
870,00;-0,01331
871,00;-0,01320
872,00;-0,01329
873,00;-0,01323
874,00;-0,01318
875,00;-0,01331
876,00;-0,01334
877,00;-0,01331
878,00;-0,01334
879,00;-0,01340
880,00;-0,01340
881,00;-0,01329
882,00;-0,01321
883,00;-0,01340
884,00;-0,01326
885,00;-0,01328
886,00;-0,01302
887,00;-0,01300
888,00;-0,01299
889,00;-0,01312
890,00;-0,01326
891,00;-0,01312
892,00;-0,01303
893,00;-0,01305
894,00;-0,01318
895,00;-0,01341
896,00;-0,01331
897,00;-0,01314
898,00;-0,01309
899,00;-0,01317
900,00;-0,01308
901,00;-0,01291
902,00;-0,01302
903,00;-0,01300
904,00;-0,01274
905,00;-0,01265
906,00;-0,01270
907,00;-0,01260
908,00;-0,01277
909,00;-0,01262
910,00;-0,01294
911,00;-0,01280
912,00;-0,01314
913,00;-0,01309
914,00;-0,01294
915,00;-0,01331
916,00;-0,01300
917,00;-0,01302
918,00;-0,01306
919,00;-0,01266
920,00;-0,01279
921,00;-0,01268
922,00;-0,01271
923,00;-0,01259
924,00;-0,01257
925,00;-0,01257
926,00;-0,01265
927,00;-0,01251
928,00;-0,01283
929,00;-0,01282
930,00;-0,01302
931,00;-0,01283
932,00;-0,01309
933,00;-0,01285
934,00;-0,01268
935,00;-0,01295
936,00;-0,01271
937,00;-0,01282
938,00;-0,01257
939,00;-0,01259
940,00;-0,01239
941,00;-0,01257
942,00;-0,01250
943,00;-0,01236
944,00;-0,01254
945,00;-0,01250
946,00;-0,01245
947,00;-0,01263
948,00;-0,01253
949,00;-0,01266
950,00;-0,01274
951,00;-0,01283
952,00;-0,01276
953,00;-0,01266
954,00;-0,01277
955,00;-0,01274
956,00;-0,01268
957,00;-0,01250
958,00;-0,01251
959,00;-0,01239
960,00;-0,01224
961,00;-0,01228
962,00;-0,01221
963,00;-0,01221
964,00;-0,01230
965,00;-0,01228
966,00;-0,01245
967,00;-0,01233
968,00;-0,01250
969,00;-0,01250
970,00;-0,01253
971,00;-0,01245
972,00;-0,01241
973,00;-0,01263
974,00;-0,01253
975,00;-0,01244
976,00;-0,01241
977,00;-0,01212
978,00;-0,01208
979,00;-0,01219
980,00;-0,01222
981,00;-0,01218
982,00;-0,01201
983,00;-0,01196
984,00;-0,01196
985,00;-0,01196
986,00;-0,01204
987,00;-0,01212
988,00;-0,01231
989,00;-0,01236
990,00;-0,01228
991,00;-0,01241
992,00;-0,01237
993,00;-0,01236
994,00;-0,01233
995,00;-0,01233
996,00;-0,01218
997,00;-0,01213
998,00;-0,01208
999,00;-0,01215
1000,00;-0,01199
1001,00;-0,01196
1002,00;-0,01190
1003,00;-0,01189
1004,00;-0,01187
1005,00;-0,01193
1006,00;-0,01193
1007,00;-0,01201
1008,00;-0,01212
1009,00;-0,01199
1010,00;-0,01208
1011,00;-0,01207
1012,00;-0,01204
1013,00;-0,01192
1014,00;-0,01189
1015,00;-0,01192
1016,00;-0,01186
1017,00;-0,01180
1018,00;-0,01172
1019,00;-0,01163
1020,00;-0,01160
1021,00;-0,01166
1022,00;-0,01160
1023,00;-0,01160
1024,00;-0,01157
1025,00;-0,01163
1026,00;-0,01164
1027,00;-0,01157
1028,00;-0,01176
1029,00;-0,01186
1030,00;-0,01183
1031,00;-0,01173
1032,00;-0,01170
1033,00;-0,01193
1034,00;-0,01170
1035,00;-0,01160
1036,00;-0,01169
1037,00;-0,01166
1038,00;-0,01155
1039,00;-0,01143
1040,00;-0,01141
1041,00;-0,01144
1042,00;-0,01149
1043,00;-0,01146
1044,00;-0,01146
1045,00;-0,01138
1046,00;-0,01143
1047,00;-0,01151
1048,00;-0,01141
1049,00;-0,01143
1050,00;-0,01163
1051,00;-0,01160
1052,00;-0,01128
1053,00;-0,01144
1054,00;-0,01163
1055,00;-0,01114
1056,00;-0,01140
1057,00;-0,01151
1058,00;-0,01123
1059,00;-0,01112
1060,00;-0,01143
1061,00;-0,01125
1062,00;-0,01089
1063,00;-0,01106
1064,00;-0,01100
1065,00;-0,01096
1066,00;-0,01111
1067,00;-0,01109
1068,00;-0,01103
1069,00;-0,01117
1070,00;-0,01091
1071,00;-0,01117
1072,00;-0,01128
1073,00;-0,01117
1074,00;-0,01118
1075,00;-0,01105
1076,00;-0,01140
1077,00;-0,01099
1078,00;-0,01122
1079,00;-0,01122
1080,00;-0,01112
1081,00;-0,01128
1082,00;-0,01079
1083,00;-0,01089
1084,00;-0,01100
1085,00;-0,01076
1086,00;-0,01103
1087,00;-0,01068
1088,00;-0,01073
1089,00;-0,01080
1090,00;-0,01079
1091,00;-0,01079
1092,00;-0,01089
1093,00;-0,01085
1094,00;-0,01097
1095,00;-0,01080
1096,00;-0,01076
1097,00;-0,01093
1098,00;-0,01080
1099,00;-0,01099
1100,00;-0,01088