File: films/spectrometro uv1000/20230310_Sample-06.txt
"File_221110_221150 - RawData"
"Wavelength nm.","Abs."
300.00,0.01785
301.00,0.07271
302.00,0.06302
303.00,0.05756
304.00,0.04381
305.00,0.03818
306.00,0.03670
307.00,0.03123
308.00,0.03236
309.00,0.02061
310.00,0.02072
311.00,0.01721
312.00,0.01260
313.00,0.00900
314.00,0.00639
315.00,0.00339
316.00,0.00153
317.00,0.00006
318.00,-0.00233
319.00,-0.00359
320.00,-0.00424
321.00,-0.00650
322.00,-0.00954
323.00,-0.01175
324.00,-0.01216
325.00,-0.01262
326.00,-0.01334
327.00,-0.01443
328.00,-0.01505
329.00,-0.01656
330.00,-0.01749
331.00,-0.01846
332.00,-0.01868
333.00,-0.01909
334.00,-0.01965
335.00,-0.02036
336.00,-0.02023
337.00,-0.02014
338.00,-0.02075
339.00,-0.02187
340.00,-0.02335
341.00,-0.02271
342.00,-0.02251
343.00,-0.02251
344.00,-0.02277
345.00,-0.02287
346.00,-0.02333
347.00,-0.02303
348.00,-0.02341
349.00,-0.02350
350.00,-0.02354
351.00,-0.02391
352.00,-0.02411
353.00,-0.02385
354.00,-0.02396
355.00,-0.02417
356.00,-0.02414
357.00,-0.02399
358.00,-0.02405
359.00,-0.02414
360.00,-0.02385
361.00,-0.02403
362.00,-0.02403
363.00,-0.02383
364.00,-0.02434
365.00,-0.02435
366.00,-0.02406
367.00,-0.02420
368.00,-0.02393
369.00,-0.02396
370.00,-0.02365
371.00,-0.02380
372.00,-0.02345
373.00,-0.02341
374.00,-0.02365
375.00,-0.02353
376.00,-0.02350
377.00,-0.02344
378.00,-0.02309
379.00,-0.02312
380.00,-0.02342
381.00,-0.02336
382.00,-0.02328
383.00,-0.02312
384.00,-0.02341
385.00,-0.02327
386.00,-0.02347
387.00,-0.02341
388.00,-0.02344
389.00,-0.02342
390.00,-0.02338
391.00,-0.02335
392.00,-0.02347
393.00,-0.02312
394.00,-0.02303
395.00,-0.02321
396.00,-0.02330
397.00,-0.02332
398.00,-0.02327
399.00,-0.02328
400.00,-0.02309
401.00,-0.02304
402.00,-0.02309
403.00,-0.02303
404.00,-0.02289
405.00,-0.02296
406.00,-0.02290
407.00,-0.02289
408.00,-0.02280
409.00,-0.02277
410.00,-0.02272
411.00,-0.02275
412.00,-0.02272
413.00,-0.02260
414.00,-0.02257
415.00,-0.02252
416.00,-0.02257
417.00,-0.02257
418.00,-0.02243
419.00,-0.02242
420.00,-0.02245
421.00,-0.02243
422.00,-0.02243
423.00,-0.02231
424.00,-0.02223
425.00,-0.02225
426.00,-0.02226
427.00,-0.02222
428.00,-0.02232
429.00,-0.02223
430.00,-0.02225
431.00,-0.02196
432.00,-0.02173
433.00,-0.02193
434.00,-0.02193
435.00,-0.02191
436.00,-0.02197
437.00,-0.02180
438.00,-0.02182
439.00,-0.02165
440.00,-0.02173
441.00,-0.02168
442.00,-0.02159
443.00,-0.02159
444.00,-0.02158
445.00,-0.02170
446.00,-0.02161
447.00,-0.02141
448.00,-0.02155
449.00,-0.02155
450.00,-0.02173
451.00,-0.02168
452.00,-0.02153
453.00,-0.02142
454.00,-0.02121
455.00,-0.02132
456.00,-0.02119
457.00,-0.02122
458.00,-0.02127
459.00,-0.02130
460.00,-0.02136
461.00,-0.02127
462.00,-0.02129
463.00,-0.02113
464.00,-0.02101
465.00,-0.02097
466.00,-0.02092
467.00,-0.02101
468.00,-0.02101
469.00,-0.02106
470.00,-0.02098
471.00,-0.02097
472.00,-0.02104
473.00,-0.02097
474.00,-0.02086
475.00,-0.02084
476.00,-0.02072
477.00,-0.02075
478.00,-0.02069
479.00,-0.02065
480.00,-0.02069
481.00,-0.02069
482.00,-0.02068
483.00,-0.02072
484.00,-0.02077
485.00,-0.02068
486.00,-0.02065
487.00,-0.02066
488.00,-0.02039
489.00,-0.02028
490.00,-0.02029
491.00,-0.02029
492.00,-0.02022
493.00,-0.02042
494.00,-0.02051
495.00,-0.02040
496.00,-0.02046
497.00,-0.02043
498.00,-0.02031
499.00,-0.02023
500.00,-0.02028
501.00,-0.02008
502.00,-0.02000
503.00,-0.02000
504.00,-0.02008
505.00,-0.02017
506.00,-0.02011
507.00,-0.02013
508.00,-0.02013
509.00,-0.02000
510.00,-0.02000
511.00,-0.02008
512.00,-0.02008
513.00,-0.01999
514.00,-0.01987
515.00,-0.01976
516.00,-0.01971
517.00,-0.01962
518.00,-0.01952
519.00,-0.01955
520.00,-0.01952
521.00,-0.01950
522.00,-0.01978
523.00,-0.01962
524.00,-0.01991
525.00,-0.01991
526.00,-0.01971
527.00,-0.01962
528.00,-0.01955
529.00,-0.01953
530.00,-0.01939
531.00,-0.01936
532.00,-0.01933
533.00,-0.01933
534.00,-0.01926
535.00,-0.01929
536.00,-0.01942
537.00,-0.01950
538.00,-0.01936
539.00,-0.01945
540.00,-0.01939
541.00,-0.01933
542.00,-0.01944
543.00,-0.01945
544.00,-0.01947
545.00,-0.01924
546.00,-0.01894
547.00,-0.01881
548.00,-0.01880
549.00,-0.01875
550.00,-0.01881
551.00,-0.01877
552.00,-0.01888
553.00,-0.01886
554.00,-0.01897
555.00,-0.01910
556.00,-0.01913
557.00,-0.01907
558.00,-0.01901
559.00,-0.01895
560.00,-0.01875
561.00,-0.01881
562.00,-0.01878
563.00,-0.01855
564.00,-0.01849
565.00,-0.01845
566.00,-0.01834
567.00,-0.01837
568.00,-0.01846
569.00,-0.01846
570.00,-0.01859
571.00,-0.01875
572.00,-0.01860
573.00,-0.01875
574.00,-0.01880
575.00,-0.01875
576.00,-0.01860
577.00,-0.01849
578.00,-0.01846
579.00,-0.01834
580.00,-0.01817
581.00,-0.01813
582.00,-0.01802
583.00,-0.01801
584.00,-0.01805
585.00,-0.01801
586.00,-0.01788
587.00,-0.01811
588.00,-0.01802
589.00,-0.01830
590.00,-0.01830
591.00,-0.01840
592.00,-0.01839
593.00,-0.01820
594.00,-0.01807
595.00,-0.01810
596.00,-0.01817
597.00,-0.01797
598.00,-0.01799
599.00,-0.01779
600.00,-0.01764
601.00,-0.01758
602.00,-0.01758
603.00,-0.01753
604.00,-0.01750
605.00,-0.01767
606.00,-0.01765
607.00,-0.01775
608.00,-0.01781
609.00,-0.01788
610.00,-0.01788
611.00,-0.01790
612.00,-0.01797
613.00,-0.01801
614.00,-0.01805
615.00,-0.01785
616.00,-0.01770
617.00,-0.01756
618.00,-0.01747
619.00,-0.01733
620.00,-0.01723
621.00,-0.01729
622.00,-0.01697
623.00,-0.01691
624.00,-0.01703
625.00,-0.01709
626.00,-0.01715
627.00,-0.01727
628.00,-0.01732
629.00,-0.01743
630.00,-0.01743
631.00,-0.01758
632.00,-0.01765
633.00,-0.01767
634.00,-0.01755
635.00,-0.01746
636.00,-0.01738
637.00,-0.01729
638.00,-0.01717
639.00,-0.01720
640.00,-0.01700
641.00,-0.01700
642.00,-0.01685
643.00,-0.01689
644.00,-0.01669
645.00,-0.01653
646.00,-0.01646
647.00,-0.01649
648.00,-0.01653
649.00,-0.01663
650.00,-0.01671
651.00,-0.01668
652.00,-0.01701
653.00,-0.01700
654.00,-0.01698
655.00,-0.01711
656.00,-0.01706
657.00,-0.01701
658.00,-0.01701
659.00,-0.01698
660.00,-0.01688
661.00,-0.01686
662.00,-0.01671
663.00,-0.01648
664.00,-0.01639
665.00,-0.01630
666.00,-0.01619
667.00,-0.01602
668.00,-0.01608
669.00,-0.01601
670.00,-0.01601
671.00,-0.01613
672.00,-0.01604
673.00,-0.01624
674.00,-0.01640
675.00,-0.01648
676.00,-0.01645
677.00,-0.01659
678.00,-0.01668
679.00,-0.01663
680.00,-0.01668
681.00,-0.01678
682.00,-0.01694
683.00,-0.01643
684.00,-0.01651
685.00,-0.01651
686.00,-0.01639
687.00,-0.01610
688.00,-0.01602
689.00,-0.01601
690.00,-0.01575
691.00,-0.01556
692.00,-0.01556
693.00,-0.01552
694.00,-0.01550
695.00,-0.01556
696.00,-0.01559
697.00,-0.01569
698.00,-0.01570
699.00,-0.01579
700.00,-0.01573
701.00,-0.01591
702.00,-0.01593
703.00,-0.01625
704.00,-0.01625
705.00,-0.01630
706.00,-0.01631
707.00,-0.01636
708.00,-0.01613
709.00,-0.01601
710.00,-0.01627
711.00,-0.01602
712.00,-0.01599
713.00,-0.01581
714.00,-0.01549
715.00,-0.01547
716.00,-0.01532
717.00,-0.01526
718.00,-0.01517
719.00,-0.01503
720.00,-0.01498
721.00,-0.01486
722.00,-0.01488
723.00,-0.01500
724.00,-0.01491
725.00,-0.01511
726.00,-0.01520
727.00,-0.01523
728.00,-0.01535
729.00,-0.01547
730.00,-0.01549
731.00,-0.01575
732.00,-0.01570
733.00,-0.01579
734.00,-0.01575
735.00,-0.01582
736.00,-0.01579
737.00,-0.01573
738.00,-0.01573
739.00,-0.01570
740.00,-0.01544
741.00,-0.01547
742.00,-0.01524
743.00,-0.01509
744.00,-0.01485
745.00,-0.01482
746.00,-0.01472
747.00,-0.01454
748.00,-0.01443
749.00,-0.01442
750.00,-0.01430
751.00,-0.01431
752.00,-0.01439
753.00,-0.01445
754.00,-0.01451
755.00,-0.01445
756.00,-0.01450
757.00,-0.01469
758.00,-0.01488
759.00,-0.01498
760.00,-0.01508
761.00,-0.01517
762.00,-0.01526
763.00,-0.01538
764.00,-0.01535
765.00,-0.01552
766.00,-0.01540
767.00,-0.01534
768.00,-0.01506
769.00,-0.01526
770.00,-0.01512
771.00,-0.01508
772.00,-0.01492
773.00,-0.01466
774.00,-0.01451
775.00,-0.01439
776.00,-0.01418
777.00,-0.01410
778.00,-0.01399
779.00,-0.01382
780.00,-0.01364
781.00,-0.01363
782.00,-0.01384
783.00,-0.01376
784.00,-0.01373
785.00,-0.01381
786.00,-0.01382
787.00,-0.01385
788.00,-0.01382
789.00,-0.01401
790.00,-0.01401
791.00,-0.01416
792.00,-0.01430
793.00,-0.01443
794.00,-0.01453
795.00,-0.01466
796.00,-0.01453
797.00,-0.01465
798.00,-0.01483
799.00,-0.01486
800.00,-0.01465
801.00,-0.01486
802.00,-0.01486
803.00,-0.01448
804.00,-0.01465
805.00,-0.01448
806.00,-0.01434
807.00,-0.01422
808.00,-0.01414
809.00,-0.01404
810.00,-0.01382
811.00,-0.01364
812.00,-0.01357
813.00,-0.01344
814.00,-0.01331
815.00,-0.01324
816.00,-0.01315
817.00,-0.01306
818.00,-0.01299
819.00,-0.01309
820.00,-0.01309
821.00,-0.01303
822.00,-0.01311
823.00,-0.01305
824.00,-0.01329
825.00,-0.01352
826.00,-0.01344
827.00,-0.01360
828.00,-0.01378
829.00,-0.01389
830.00,-0.01382
831.00,-0.01414
832.00,-0.01410
833.00,-0.01424
834.00,-0.01427
835.00,-0.01427
836.00,-0.01436
837.00,-0.01428
838.00,-0.01433
839.00,-0.01425
840.00,-0.01425
841.00,-0.01419
842.00,-0.01418
843.00,-0.01392
844.00,-0.01378
845.00,-0.01375
846.00,-0.01361
847.00,-0.01334
848.00,-0.01328
849.00,-0.01312
850.00,-0.01303
851.00,-0.01270
852.00,-0.01254
853.00,-0.01245
854.00,-0.01239
855.00,-0.01237
856.00,-0.01248
857.00,-0.01254
858.00,-0.01239
859.00,-0.01236
860.00,-0.01237
861.00,-0.01262
862.00,-0.01260
863.00,-0.01277
864.00,-0.01277
865.00,-0.01276
866.00,-0.01317
867.00,-0.01314
868.00,-0.01329
869.00,-0.01344
870.00,-0.01343
871.00,-0.01357
872.00,-0.01381
873.00,-0.01384
874.00,-0.01381
875.00,-0.01392
876.00,-0.01393
877.00,-0.01387
878.00,-0.01392
879.00,-0.01392
880.00,-0.01390
881.00,-0.01364
882.00,-0.01357
883.00,-0.01352
884.00,-0.01340
885.00,-0.01324
886.00,-0.01295
887.00,-0.01292
888.00,-0.01276
889.00,-0.01283
890.00,-0.01273
891.00,-0.01244
892.00,-0.01210
893.00,-0.01199
894.00,-0.01193
895.00,-0.01212
896.00,-0.01198
897.00,-0.01178
898.00,-0.01169
899.00,-0.01187
900.00,-0.01186
901.00,-0.01160
902.00,-0.01183
903.00,-0.01198
904.00,-0.01186
905.00,-0.01195
906.00,-0.01202
907.00,-0.01196
908.00,-0.01241
909.00,-0.01218
910.00,-0.01270
911.00,-0.01256
912.00,-0.01297
913.00,-0.01294
914.00,-0.01279
915.00,-0.01332
916.00,-0.01309
917.00,-0.01328
918.00,-0.01352
919.00,-0.01315
920.00,-0.01344
921.00,-0.01349
922.00,-0.01355
923.00,-0.01343
924.00,-0.01350
925.00,-0.01337
926.00,-0.01344
927.00,-0.01309
928.00,-0.01320
929.00,-0.01300
930.00,-0.01311
931.00,-0.01279
932.00,-0.01282
933.00,-0.01239
934.00,-0.01224
935.00,-0.01228
936.00,-0.01196
937.00,-0.01199
938.00,-0.01172
939.00,-0.01170
940.00,-0.01135
941.00,-0.01147
942.00,-0.01131
943.00,-0.01106
944.00,-0.01125
945.00,-0.01112
946.00,-0.01108
947.00,-0.01112
948.00,-0.01102
949.00,-0.01114
950.00,-0.01125
951.00,-0.01120
952.00,-0.01128
953.00,-0.01134
954.00,-0.01158
955.00,-0.01166
956.00,-0.01181
957.00,-0.01186
958.00,-0.01190
959.00,-0.01212
960.00,-0.01221
961.00,-0.01239
962.00,-0.01250
963.00,-0.01271
964.00,-0.01286
965.00,-0.01292
966.00,-0.01302
967.00,-0.01291
968.00,-0.01309
969.00,-0.01314
970.00,-0.01309
971.00,-0.01300
972.00,-0.01292
973.00,-0.01309
974.00,-0.01305
975.00,-0.01311
976.00,-0.01299
977.00,-0.01271
978.00,-0.01266
979.00,-0.01266
980.00,-0.01263
981.00,-0.01250
982.00,-0.01216
983.00,-0.01193
984.00,-0.01180
985.00,-0.01161
986.00,-0.01152
987.00,-0.01132
988.00,-0.01135
989.00,-0.01126
990.00,-0.01102
991.00,-0.01094
992.00,-0.01083
993.00,-0.01067
994.00,-0.01060
995.00,-0.01054
996.00,-0.01056
997.00,-0.01048
998.00,-0.01048
999.00,-0.01050
1000.00,-0.01047
1001.00,-0.01060
1002.00,-0.01062
1003.00,-0.01065
1004.00,-0.01067
1005.00,-0.01065
1006.00,-0.01076
1007.00,-0.01096
1008.00,-0.01100
1009.00,-0.01105
1010.00,-0.01123
1011.00,-0.01146
1012.00,-0.01152
1013.00,-0.01151
1014.00,-0.01161
1015.00,-0.01180
1016.00,-0.01187
1017.00,-0.01213
1018.00,-0.01213
1019.00,-0.01218
1020.00,-0.01225
1021.00,-0.01242
1022.00,-0.01236
1023.00,-0.01244
1024.00,-0.01248
1025.00,-0.01247
1026.00,-0.01248
1027.00,-0.01244
1028.00,-0.01254
1029.00,-0.01251
1030.00,-0.01247
1031.00,-0.01233
1032.00,-0.01224
1033.00,-0.01227
1034.00,-0.01213
1035.00,-0.01193
1036.00,-0.01184
1037.00,-0.01180
1038.00,-0.01169
1039.00,-0.01141
1040.00,-0.01118
1041.00,-0.01117
1042.00,-0.01111
1043.00,-0.01093
1044.00,-0.01071
1045.00,-0.01053
1046.00,-0.01041
1047.00,-0.01042
1048.00,-0.01019
1049.00,-0.01013
1050.00,-0.01022
1051.00,-0.01004
1052.00,-0.00963
1053.00,-0.00974
1054.00,-0.00984
1055.00,-0.00934
1056.00,-0.00955
1057.00,-0.00972
1058.00,-0.00934
1059.00,-0.00937
1060.00,-0.00958
1061.00,-0.00955
1062.00,-0.00943
1063.00,-0.00972
1064.00,-0.00977
1065.00,-0.00983
1066.00,-0.00999
1067.00,-0.00996
1068.00,-0.01003
1069.00,-0.01025
1070.00,-0.01022
1071.00,-0.01048
1072.00,-0.01065
1073.00,-0.01071
1074.00,-0.01086
1075.00,-0.01083
1076.00,-0.01117
1077.00,-0.01096
1078.00,-0.01128
1079.00,-0.01140
1080.00,-0.01140
1081.00,-0.01180
1082.00,-0.01137
1083.00,-0.01158
1084.00,-0.01180
1085.00,-0.01170
1086.00,-0.01189
1087.00,-0.01173
1088.00,-0.01175
1089.00,-0.01193
1090.00,-0.01187
1091.00,-0.01178
1092.00,-0.01181
1093.00,-0.01173
1094.00,-0.01167
1095.00,-0.01146
1096.00,-0.01128
1097.00,-0.01138
1098.00,-0.01117
1099.00,-0.01120
1100.00,-0.01112